t_s,accel_x,accel_y,accel_z,gyro_x_raw,gyro_y_raw,gyro_z_raw,gyro_x_corr,gyro_y_corr,gyro_z_corr
0.000009,-192,578,16330,-4,-32,-3,0,0,1
0.010064,-174,575,16347,-3,-31,-2,1,1,2
0.020065,-175,586,16350,-3,-31,-2,1,1,2
0.030065,-177,577,16351,-2,-32,-2,2,0,2
0.040066,-188,579,16352,-4,-32,-2,0,0,2
0.050065,-187,584,16350,-4,-32,-3,0,0,1
0.060073,-189,578,16356,-4,-31,-3,0,1,1
0.070065,-188,566,16365,-3,-33,-3,1,-1,1
0.080073,-191,562,16360,-2,-33,-3,2,-1,1
0.090076,-196,561,16362,-4,-33,-4,0,-1,0
0.100065,-183,561,16361,-4,-33,-4,0,-1,0
0.110065,-187,570,16352,-2,-33,-3,2,-1,1
0.120085,-183,575,16348,-2,-32,-3,2,0,1
0.130065,-179,575,16344,-2,-33,-3,2,-1,1
0.140073,-184,566,16330,0,-33,-2,4,-1,2
0.150065,-186,554,16332,-1,-32,-3,3,0,1
0.160073,-187,556,16339,-2,-31,-4,2,1,0
0.170064,-202,559,16351,-4,-32,-4,0,0,0
0.180073,-198,564,16350,-4,-32,-3,0,0,1
0.190065,-192,565,16345,-2,-33,-3,2,-1,1
0.200073,-181,567,16350,-1,-33,-4,3,-1,0
0.210064,-188,563,16352,-2,-33,-3,2,-1,1
0.220063,-191,556,16353,-3,-32,-3,1,0,1
0.230064,-189,554,16341,-4,-31,-2,0,1,2
0.240075,-188,561,16342,-4,-31,-3,0,1,1
0.250064,-187,567,16339,-3,-32,-3,1,0,1
0.260076,-188,565,16342,-2,-34,-3,2,-2,1
0.270065,-183,544,16359,-2,-35,-2,2,-3,2
0.280065,-188,547,16354,-3,-34,-2,1,-2,2
0.290063,-189,552,16345,-5,-33,-3,-1,-1,1
0.300067,-191,561,16350,-6,-33,-3,-2,-1,1
0.310118,-186,577,16361,-2,-34,-4,2,-2,0
0.320074,-188,578,16353,-2,-34,-5,2,-2,-1
0.330063,-192,585,16342,-3,-33,-4,1,-1,0
0.340062,-202,577,16341,-4,-32,-5,0,0,-1
0.350062,-207,574,16335,-4,-31,-6,0,1,-2
0.360063,-199,570,16334,-6,-31,-5,-2,1,-1
0.370062,-208,572,16344,-6,-31,-4,-2,1,0
0.380064,-188,555,16352,-4,-32,-3,0,0,1
0.390065,-188,558,16362,-4,-33,-4,0,-1,0
0.400079,-176,561,16356,-3,-33,-2,1,-1,2
0.410064,-189,559,16355,-4,-32,-2,0,0,2
0.420063,-187,566,16364,-6,-31,-3,-2,1,1
0.430065,-190,563,16370,-5,-31,-3,-1,1,1
0.440074,-194,562,16373,-3,-31,-2,1,1,2
0.450064,-195,571,16338,-2,-31,-2,2,1,2
0.460073,-193,575,16340,-2,-32,-3,2,0,1
0.470066,-181,581,16345,-2,-31,-2,2,1,2
0.480071,-174,578,16341,-4,-32,-1,0,0,3
0.490063,-171,571,16341,-3,-32,-1,1,0,3
0.500062,-168,561,16343,-2,-34,-2,2,-2,2
0.510063,-168,559,16343,-2,-34,-1,2,-2,3
0.520063,-176,555,16344,-3,-32,-2,1,0,2
0.530063,-188,571,16345,-3,-31,-2,1,1,2
0.540063,-197,571,16343,-3,-31,-3,1,1,1
0.550064,-190,588,16326,-5,-32,-3,-1,0,1
0.560077,-187,594,16321,-4,-31,-3,0,1,1
0.570063,-187,577,16335,-4,-33,-4,0,-1,0
0.580077,-192,573,16328,-3,-34,-3,1,-2,1
0.590073,-186,563,16329,-3,-34,-3,1,-2,1
0.600073,-181,558,16323,-4,-34,-3,0,-2,1
0.610073,-184,560,16334,-3,-33,-4,1,-1,0
0.620080,-171,565,16351,-2,-33,-2,2,-1,2
0.630103,-185,565,16348,-2,-33,-2,2,-1,2
0.640079,-183,573,16336,-3,-32,-1,1,0,3
0.650065,-187,574,16335,-3,-31,-2,1,1,2
0.660075,-188,565,16333,-3,-33,-4,1,-1,0
0.670064,-177,552,16348,-2,-33,-5,2,-1,-1
0.680071,-181,558,16340,-1,-33,-4,3,-1,0
0.690063,-174,577,16337,-1,-32,-3,3,0,1
0.700063,-175,575,16351,-3,-32,-4,1,0,0
0.710064,-179,575,16352,-3,-31,-3,1,1,1
0.720064,-181,571,16342,-4,-31,-3,0,1,1
0.730062,-186,574,16335,-4,-31,-3,0,1,1
0.740065,-178,572,16328,-2,-33,-3,2,-1,1
0.750063,-171,561,16339,-3,-32,-4,1,0,0
0.760074,-186,576,16367,-5,-31,-4,-1,1,0
0.770063,-181,570,16374,-5,-32,-3,-1,0,1
0.780063,-182,562,16369,-4,-31,-2,0,1,2
0.790062,-184,554,16353,-4,-30,-2,0,2,2
0.800062,-183,569,16354,-4,-31,-3,0,1,1
0.810063,-179,579,16368,-4,-32,-3,0,0,1
0.820063,-181,571,16367,-4,-32,-3,0,0,1
0.830064,-179,564,16364,-6,-31,-3,-2,1,1
0.840062,-183,568,16363,-6,-32,-2,-2,0,2
0.850063,-187,570,16356,-6,-34,0,-2,-2,4
0.860070,-175,572,16345,-5,-34,-1,-1,-2,3
0.870064,-172,568,16343,-4,-34,-3,0,-2,1
0.880062,-177,571,16341,-3,-33,-3,1,-1,1
0.890064,-182,573,16341,-3,-33,-3,1,-1,1
0.900062,-192,557,16342,-3,-31,-3,1,1,1
0.910063,-191,561,16351,-2,-31,-3,2,1,1
0.920062,-192,560,16357,-2,-32,-4,2,0,0
0.930063,-195,564,16356,-1,-32,-4,3,0,0
0.940063,-200,564,16355,-1,-32,-4,3,0,0
0.950063,-194,569,16351,-2,-32,-5,2,0,-1
0.960063,-197,568,16363,-2,-31,-5,2,1,-1
0.970063,-190,569,16366,-2,-30,-4,2,2,0
0.980062,-178,557,16349,-3,-30,-4,1,2,0
0.990062,-171,554,16342,-2,-31,-5,2,1,-1
1.000063,-183,555,16339,-3,-31,-3,1,1,1
1.010063,-179,552,16334,-3,-30,-4,1,2,0
1.020063,-177,572,16333,-4,-30,-2,0,2,2
1.030064,-175,570,16337,-4,-30,-2,0,2,2
1.040073,-174,566,16343,-4,-31,-2,0,1,2
1.050063,-181,579,16344,-3,-31,-2,1,1,2
1.060071,-178,575,16338,-3,-32,-2,1,0,2
1.070064,-185,575,16353,-5,-30,-3,-1,2,1
1.080070,-184,573,16354,-4,-31,-3,0,1,1
1.090064,-178,572,16353,-4,-32,-3,0,0,1
1.100070,-168,589,16343,-2,-33,-3,2,-1,1
1.110063,-171,592,16337,-2,-32,-3,2,0,1
1.120070,-181,571,16345,-4,-32,-3,0,0,1
1.130063,-189,560,16350,-5,-32,-3,-1,0,1
1.140063,-183,553,16344,-6,-31,-3,-2,1,1
1.150063,-195,558,16340,-5,-31,-2,-1,1,2
1.160070,-190,564,16358,-4,-33,-1,0,-1,3
1.170064,-185,563,16359,-3,-34,-1,1,-2,3
1.180063,-187,557,16352,-5,-34,-3,-1,-2,1
1.190063,-187,555,16356,-4,-33,-2,0,-1,2
1.200071,-183,550,16354,-5,-33,-1,-1,-1,3
1.210066,-161,566,16360,-4,-32,-3,0,0,1
1.220063,-164,572,16369,-3,-32,-3,1,0,1
1.230063,-168,585,16373,-2,-32,-2,2,0,2
1.240063,-169,588,16348,-3,-32,-3,1,0,1
1.250063,-173,582,16348,-4,-31,-2,0,1,2
1.260062,-188,578,16364,-4,-30,-1,0,2,3
1.270063,-182,581,16359,-3,-32,-1,1,0,3
1.280088,-187,573,16353,-3,-33,-2,1,-1,2
1.290063,-183,574,16346,-2,-33,-3,2,-1,1
1.300070,-177,576,16348,-2,-33,-3,2,-1,1
1.310063,-172,574,16356,-3,-32,-2,1,0,2
1.320061,-179,575,16360,-3,-31,-2,1,1,2
1.330063,-190,561,16348,-3,-31,-2,1,1,2
1.340062,-187,563,16340,-2,-32,-2,2,0,2
1.350062,-191,558,16335,0,-33,-2,4,-1,2
1.360062,-190,559,16332,-1,-33,-1,3,-1,3
1.370062,-196,558,16342,-3,-32,-3,1,0,1
1.380062,-198,555,16338,-3,-32,-2,1,0,2
1.390063,-206,559,16336,-3,-33,-3,1,-1,1
1.400062,-193,556,16342,-2,-34,-4,2,-2,0
1.410063,-180,554,16358,-2,-33,-4,2,-1,0
1.420062,-169,559,16359,-3,-32,-4,1,0,0
1.430064,-182,557,16348,-4,-32,-4,0,0,0
1.440072,-189,558,16348,-4,-32,-4,0,0,0
1.450063,-190,560,16342,-3,-31,-3,1,1,1
1.460062,-185,569,16344,-3,-32,-4,1,0,0
1.470063,-195,577,16355,-3,-32,-3,1,0,1
1.480062,-193,570,16339,-4,-32,-3,0,0,1
1.490063,-191,565,16338,-4,-31,-2,0,1,2
1.500062,-193,567,16334,-3,-31,-2,1,1,2
1.510063,-192,565,16345,-3,-32,-1,1,0,3
1.520061,-184,561,16358,-3,-32,-3,1,0,1
1.530063,-182,554,16349,-2,-32,-4,2,0,0
1.540063,-187,570,16339,-2,-32,-4,2,0,0
1.550062,-190,572,16338,-4,-30,-3,0,2,1
1.560068,-190,575,16348,-5,-30,-4,-1,2,0
1.570062,-196,568,16347,-4,-30,-5,0,2,-1
1.580091,-200,574,16351,-4,-31,-4,0,1,0
1.590104,-199,575,16343,-2,-32,-4,2,0,0
1.600084,-198,572,16332,-1,-32,-4,3,0,0
1.610100,-190,574,16329,-2,-32,-4,2,0,0
1.620075,-191,570,16340,-3,-32,-4,1,0,0
1.630075,-191,572,16353,-4,-32,-3,0,0,1
1.640077,-195,574,16340,-3,-32,-4,1,0,0
1.650077,-198,575,16340,-3,-32,-3,1,0,1
1.660092,-196,557,16346,-3,-32,-3,1,0,1
1.670114,-195,560,16348,-3,-32,-3,1,0,1
1.680104,-195,558,16342,-3,-33,-5,1,-1,-1
1.690095,-198,563,16340,-4,-32,-5,0,0,-1
1.700065,-195,561,16341,-3,-32,-4,1,0,0
1.710061,-177,557,16346,-1,-33,-4,3,-1,0
1.720062,-178,557,16362,-1,-33,-3,3,-1,1
1.730060,-162,556,16350,-1,-33,-2,3,-1,2
1.740062,-166,552,16350,-2,-33,-3,2,-1,1
1.750062,-167,545,16344,-4,-32,-3,0,0,1
1.760063,-174,550,16344,-4,-32,-3,0,0,1
1.770063,-180,560,16345,-5,-31,-3,-1,1,1
1.780071,-184,576,16336,-4,-31,-4,0,1,0
1.790062,-192,581,16342,-5,-31,-5,-1,1,-1
1.800071,-195,568,16328,-3,-33,-4,1,-1,0
1.810066,-201,560,16332,-3,-32,-2,1,0,2
1.820061,-200,565,16342,-2,-34,-3,2,-2,1
1.830063,-203,561,16348,-2,-34,-3,2,-2,1
1.840071,-192,554,16341,-1,-34,-3,3,-2,1
1.850062,-187,550,16322,-2,-33,-2,2,-1,2
1.860080,-189,562,16333,-2,-32,-3,2,0,1
1.870083,-181,566,16349,-2,-33,-3,2,-1,1
1.880065,-192,563,16342,-2,-32,-3,2,0,1
1.890063,-198,563,16332,-2,-32,-4,2,0,0
1.900081,-205,570,16321,-1,-32,-3,3,0,1
1.910061,-198,564,16334,-2,-31,-3,2,1,1
1.920064,-199,557,16348,-1,-32,-2,3,0,2
1.930077,-191,561,16342,-1,-33,-2,3,-1,2
1.940062,-181,568,16331,-1,-33,-2,3,-1,2
1.950063,-176,570,16329,-2,-32,-2,2,0,2
1.960063,-177,569,16338,-3,-30,-1,1,2,3
1.970063,-180,578,16353,-3,-31,-1,1,1,3
1.980072,-184,564,16342,-4,-31,-2,0,1,2
1.990062,-191,561,16338,-3,-30,-3,1,2,1
2.000076,-197,567,16332,-3,-31,-4,1,1,0
2.010081,-198,578,16336,-3,-32,-4,1,0,0
2.020061,-193,577,16351,-3,-32,-4,1,0,0
2.030062,-190,576,16345,-3,-32,-3,1,0,1
2.040062,-185,567,16337,-2,-33,-3,2,-1,1
2.050063,-190,562,16337,-2,-32,-3,2,0,1
2.060061,-198,571,16334,-3,-33,-4,1,-1,0
2.070062,-195,571,16336,-2,-33,-4,2,-1,0
2.080062,-194,576,16337,-3,-33,-3,1,-1,1
2.090062,-197,567,16336,-3,-32,-2,1,0,2
2.100062,-193,572,16338,-3,-33,-3,1,-1,1
2.110062,-192,565,16341,-3,-33,-3,1,-1,1
2.120062,-203,570,16343,-2,-34,-2,2,-2,2
2.130062,-193,563,16349,-1,-33,-3,3,-1,1
2.140062,-198,560,16345,-1,-33,-2,3,-1,2
2.150062,-196,553,16344,-2,-33,-2,2,-1,2
2.160063,-188,554,16329,-2,-32,-2,2,0,2
2.170062,-186,556,16326,-3,-33,-2,1,-1,2
2.180066,-187,549,16331,-1,-33,-1,3,-1,3
2.190063,-200,566,16326,-2,-33,-2,2,-1,2
2.200062,-203,580,16325,-4,-31,-2,0,1,2
2.210065,-210,574,16326,-6,-31,-3,-2,1,1
2.220060,-216,567,16332,-5,-30,-2,-1,2,2
2.230061,-214,561,16331,-4,-32,-2,0,0,2
2.240062,-214,559,16325,-3,-33,-3,1,-1,1
2.250062,-190,547,16328,-2,-34,-3,2,-2,1
2.260062,-183,555,16334,-2,-33,-3,2,-1,1
2.270062,-193,559,16329,-2,-32,-2,2,0,2
2.280062,-190,576,16333,-2,-31,-2,2,1,2
2.290062,-186,564,16332,-3,-30,-3,1,2,1
2.300062,-190,559,16315,-4,-29,-2,0,3,2
2.310062,-195,576,16321,-3,-31,-2,1,1,2
2.320062,-193,573,16339,-1,-32,-2,3,0,2
2.330062,-194,569,16344,0,-32,-3,4,0,1
2.340061,-193,569,16345,-3,-30,-2,1,2,2
2.350062,-186,550,16332,-3,-30,-1,1,2,3
2.360062,-186,554,16329,-3,-31,-2,1,1,2
2.370062,-183,554,16347,-3,-33,-3,1,-1,1
2.380062,-192,560,16340,-3,-32,-4,1,0,0
2.390061,-183,556,16337,-4,-31,-4,0,1,0
2.400062,-176,562,16334,-5,-31,-4,-1,1,0
2.410063,-180,557,16337,-5,-31,-3,-1,1,1
2.420070,-184,562,16347,-5,-31,-3,-1,1,1
2.430067,-188,570,16346,-4,-32,-2,0,0,2
2.440062,-184,557,16346,-3,-33,-2,1,-1,2
2.450063,-185,550,16344,-2,-34,-2,2,-2,2
2.460062,-191,547,16347,-3,-35,-2,1,-3,2
2.470063,-191,542,16351,-3,-35,-2,1,-3,2
2.480062,-187,546,16346,-3,-34,-3,1,-2,1
2.490062,-171,569,16348,-3,-34,-3,1,-2,1
2.500062,-171,574,16345,-2,-33,-3,2,-1,1
2.510062,-185,572,16346,-2,-32,-3,2,0,1
2.520061,-185,582,16350,-4,-32,-2,0,0,2
2.530062,-191,574,16339,-5,-32,-2,-1,0,2
2.540063,-195,581,16335,-5,-33,-2,-1,-1,2
2.550061,-185,572,16326,-3,-34,-3,1,-2,1
2.560067,-185,562,16351,-1,-35,-3,3,-3,1
2.570062,-182,573,16347,-2,-34,-3,2,-2,1
2.580075,-177,567,16355,-4,-32,-3,0,0,1
2.590062,-179,561,16348,-4,-31,-4,0,1,0
2.600062,-185,559,16343,-4,-32,-4,0,0,0
2.610065,-180,572,16346,-4,-32,-4,0,0,0
2.620060,-182,575,16348,-4,-32,-4,0,0,0
2.630062,-181,572,16340,-4,-31,-3,0,1,1
2.640071,-183,573,16336,-4,-31,-3,0,1,1
2.650062,-177,556,16333,-3,-31,-4,1,1,0
2.660061,-170,565,16346,-2,-31,-3,2,1,1
2.670062,-174,574,16350,-1,-32,-2,3,0,2
2.680062,-184,566,16350,-1,-32,-2,3,0,2
2.690062,-188,568,16348,0,-33,-2,4,-1,2
2.700071,-183,580,16335,-1,-32,-3,3,0,1
2.710062,-184,577,16340,-2,-31,-4,2,1,0
2.720062,-183,569,16348,-3,-30,-2,1,2,2
2.730062,-179,572,16349,-3,-31,-2,1,1,2
2.740061,-183,570,16344,-1,-32,-2,3,0,2
2.750061,-178,575,16340,-1,-34,-3,3,-2,1
2.760062,-175,578,16342,-2,-33,-3,2,-1,1
2.770062,-170,573,16360,-2,-33,-3,2,-1,1
2.780061,-170,572,16360,-3,-32,-2,1,0,2
2.790061,-172,580,16351,-1,-32,-2,3,0,2
2.800062,-180,573,16338,-2,-33,-2,2,-1,2
2.810063,-191,561,16339,-3,-32,-2,1,0,2
2.820070,-181,562,16346,-3,-33,-2,1,-1,2
2.830062,-183,561,16347,-2,-33,-2,2,-1,2
2.840063,-177,551,16343,-1,-33,-4,3,-1,0
2.850061,-169,557,16337,-2,-33,-4,2,-1,0
2.860073,-173,558,16336,-3,-33,-4,1,-1,0
2.870089,-185,563,16355,-3,-32,-4,1,0,0
2.880064,-186,563,16345,-3,-33,-3,1,-1,1
2.890062,-203,573,16333,-3,-33,-4,1,-1,0
2.900074,-199,581,16337,-4,-33,-4,0,-1,0
2.910063,-189,570,16339,-4,-32,-2,0,0,2
2.920070,-193,563,16340,-3,-33,-2,1,-1,2
2.930063,-191,554,16335,-4,-32,-3,0,0,1
2.940062,-184,543,16323,-4,-32,-2,0,0,2
2.950062,-177,546,16325,-3,-32,-2,1,0,2
2.960062,-179,557,16342,0,-33,-2,4,-1,2
2.970061,-180,565,16338,0,-33,-3,4,-1,1
2.980061,-192,575,16331,-2,-31,-2,2,1,2
2.990062,-197,580,16321,-3,-30,-3,1,2,1
3.000061,-213,573,16327,-4,-30,-3,0,2,1
3.010063,-210,553,16325,-2,-30,-2,2,2,2
3.020059,-197,550,16327,-1,-32,-3,3,0,1
3.030060,-175,539,16329,-1,-33,-4,3,-1,0
3.040061,-169,544,16324,-2,-33,-4,2,-1,0
3.050061,-166,541,16322,-4,-32,-3,0,0,1
3.060061,-165,547,16333,-4,-32,-2,0,0,2
3.070061,-154,547,16344,-6,-32,-3,-2,0,1
3.080062,-185,555,16349,-5,-31,-4,-1,1,0
3.090061,-190,560,16345,-3,-32,-4,1,0,0
3.100061,-205,566,16337,-2,-34,-3,2,-2,1
3.110061,-202,563,16335,-2,-34,-3,2,-2,1
3.120062,-197,555,16337,-4,-33,-3,0,-1,1
3.130062,-183,539,16335,-3,-32,-3,1,0,1
3.140061,-174,531,16336,-2,-32,-3,2,0,1
3.150061,-167,544,16329,0,-34,-2,4,-2,2
3.160062,-172,550,16327,-1,-33,-3,3,-1,1
3.170061,-186,554,16336,-5,-31,-4,-1,1,0
3.180061,-197,552,16332,-6,-30,-3,-2,2,1
3.190061,-208,546,16329,-6,-32,-2,-2,0,2
3.200061,-196,557,16319,-5,-33,-3,-1,-1,1
3.210063,-189,559,16324,-5,-34,-4,-1,-2,0
3.220059,-187,548,16328,-4,-35,-3,0,-3,1
3.230062,-192,541,16331,-4,-35,-2,0,-3,2
3.240061,-184,530,16318,-3,-35,-2,1,-3,2
3.250061,-184,533,16326,-2,-34,-3,2,-2,1
3.260065,-190,529,16326,-2,-34,-2,2,-2,2
3.270061,-196,541,16341,-1,-35,-4,3,-3,0
3.280062,-191,557,16344,-1,-35,-4,3,-3,0
3.290062,-205,565,16336,-3,-32,-4,1,0,0
3.300062,-214,568,16336,-6,-30,-4,-2,2,0
3.310061,-220,563,16344,-7,-29,-3,-3,3,1
3.320138,-215,559,16362,-4,-31,-3,0,1,1
3.330089,-204,553,16367,0,-36,-2,4,-4,2
3.340089,-178,550,16353,0,-37,-3,4,-5,1
3.350089,-172,558,16341,-1,-35,-2,3,-3,2
3.360088,-176,553,16349,-5,-31,-3,-1,1,1
3.370088,-180,551,16357,-5,-31,-3,-1,1,1
3.380088,-201,556,16355,-3,-31,-3,1,1,1
3.390088,-201,556,16355,-3,-33,-5,1,-1,-1
3.400089,-192,561,16344,-2,-33,-4,2,-1,0
3.410093,-195,567,16348,-2,-34,-5,2,-2,-1
3.420114,-189,569,16355,-3,-33,-5,1,-1,-1
3.430090,-196,571,16352,-5,-31,-4,-1,1,0
3.440089,-207,569,16341,-5,-32,-3,-1,0,1
3.450089,-206,570,16341,-3,-33,-2,1,-1,2
3.460089,-191,584,16344,-3,-34,-3,1,-2,1
3.470089,-190,576,16338,-1,-34,-3,3,-2,1
3.480089,-191,578,16327,-4,-31,-3,0,1,1
3.490094,-191,569,16332,-6,-30,-3,-2,2,1
3.500099,-204,562,16335,-6,-31,-2,-2,1,2
3.510083,-210,569,16331,-5,-32,-3,-1,0,1
3.520082,-197,570,16343,-2,-34,-2,2,-2,2
3.530084,-190,553,16339,-1,-34,-2,3,-2,2
3.540081,-191,561,16341,-1,-33,-3,3,-1,1
3.550082,-185,552,16336,-2,-32,-3,2,0,1
3.560095,-191,553,16335,-3,-32,-2,1,0,2
3.570080,-200,558,16344,-5,-33,-2,-1,-1,2
3.580079,-199,564,16348,-4,-33,-2,0,-1,2
3.590082,-197,566,16355,-2,-34,-2,2,-2,2
3.600079,-198,571,16337,-3,-34,-2,1,-2,2
3.610109,-195,562,16342,-5,-32,-2,-1,0,2
3.620080,-192,541,16352,-6,-32,-3,-2,0,1
3.630084,-180,546,16341,-6,-33,-3,-2,-1,1
3.640079,-172,543,16337,-4,-35,-2,0,-3,2
3.650082,-169,550,16336,-2,-36,-2,2,-4,2
3.660080,-159,562,16336,-1,-35,-3,3,-3,1
3.670079,-163,570,16349,-3,-34,-2,1,-2,2
3.680079,-170,568,16335,-6,-33,-3,-2,-1,1
3.690082,-196,566,16331,-6,-31,-3,-2,1,1
3.700080,-197,559,16331,-6,-32,-3,-2,0,1
3.710083,-203,553,16331,-4,-33,-3,0,-1,1
3.720079,-193,572,16347,-3,-34,-3,1,-2,1
3.730103,-182,571,16340,-2,-34,-3,2,-2,1
3.740087,-183,577,16337,-3,-34,-2,1,-2,2
3.750094,-179,567,16333,-4,-33,-2,0,-1,2
3.760085,-176,571,16350,-4,-31,-2,0,1,2
3.770085,-184,571,16346,-3,-31,-2,1,1,2
3.780085,-183,564,16350,-1,-32,-2,3,0,2
3.790087,-183,574,16343,-1,-34,-3,3,-2,1
3.800085,-175,580,16350,-2,-33,-3,2,-1,1
3.810098,-175,599,16361,-4,-32,-2,0,0,2
3.820082,-177,585,16378,-6,-31,-1,-2,1,3
3.830083,-183,579,16368,-5,-32,-2,-1,0,2
3.840080,-193,568,16360,-5,-32,-2,-1,0,2
3.850082,-185,568,16362,-1,-35,-3,3,-3,1
3.860079,-171,570,16354,-2,-36,-4,2,-4,0
3.870083,-168,586,16361,-3,-34,-4,1,-2,0
3.880080,-172,577,16355,-4,-33,-2,0,-1,2
3.890082,-174,575,16353,-5,-33,-3,-1,-1,1
3.900088,-172,570,16344,-6,-31,-3,-2,1,1
3.910084,-182,576,16354,-5,-33,-3,-1,-1,1
3.920079,-185,575,16363,-3,-34,-4,1,-2,0
3.930089,-170,581,16370,-3,-35,-5,1,-3,-1
3.940085,-179,578,16358,-4,-35,-5,0,-3,-1
3.950084,-196,567,16347,-5,-32,-5,-1,0,-1
3.960085,-200,564,16348,-5,-31,-4,-1,1,0
3.970089,-207,568,16361,-3,-34,-4,1,-2,0
3.980094,-207,569,16350,-1,-34,-4,3,-2,0
3.990102,-203,575,16348,-1,-34,-4,3,-2,0
4.000085,-193,578,16347,-2,-31,-5,2,1,-1
4.010098,-189,574,16344,-4,-30,-5,0,2,-1
4.020082,-192,559,16350,-5,-30,-5,-1,2,-1
4.030081,-191,553,16351,-4,-31,-5,0,1,-1
4.040081,-192,552,16337,-1,-33,-4,3,-1,0
4.050083,-189,560,16323,-2,-33,-4,2,-1,0
4.060080,-198,563,16327,-2,-33,-4,2,-1,0
4.070083,-200,554,16338,-3,-32,-3,1,0,1
4.080079,-201,552,16336,-4,-31,-3,0,1,1
4.090082,-209,554,16335,-5,-31,-5,-1,1,-1
4.100079,-196,560,16344,-3,-32,-4,1,0,0
4.110082,-191,557,16349,-2,-34,-4,2,-2,0
4.120079,-184,553,16360,-1,-35,-3,3,-3,1
4.130085,-186,554,16347,-1,-35,-3,3,-3,1
4.140085,-186,568,16342,-3,-31,-4,1,1,0
4.150089,-195,566,16342,-3,-30,-4,1,2,0
4.160084,-193,573,16333,-2,-33,-5,2,-1,-1
4.170087,-189,561,16344,0,-34,-4,4,-2,0
4.180088,-184,573,16342,0,-35,-5,4,-3,-1
4.190087,-176,566,16326,0,-34,-4,4,-2,0
4.200109,-181,554,16324,-2,-33,-4,2,-1,0
4.210439,-181,550,16332,-3,-31,-4,1,1,0
4.220083,-176,554,16333,-2,-31,-3,2,1,1
4.230128,-175,551,16333,-2,-32,-2,2,0,2
4.240088,-182,558,16332,-1,-33,-2,3,-1,2
4.250088,-185,565,16340,0,-33,-2,4,-1,2
4.260613,-184,580,16337,-4,-33,-2,0,-1,2
4.270110,-186,582,16339,-5,-32,-2,-1,0,2
4.280119,-194,564,16344,-5,-31,-3,-1,1,1
4.290101,-188,561,16334,-4,-32,-2,0,0,2
4.300094,-193,561,16338,-2,-33,-2,2,-1,2
4.310102,-187,563,16341,-2,-33,-3,2,-1,1
4.320102,-183,571,16347,-2,-33,-2,2,-1,2
4.330264,-180,561,16338,-2,-33,-3,2,-1,1
4.340118,-182,561,16335,-3,-32,-3,1,0,1
4.350094,-183,553,16332,-5,-32,-3,-1,0,1
4.360060,-194,557,16337,-3,-32,-3,1,0,1
4.370059,-197,552,16348,-3,-33,-4,1,-1,0
4.380059,-186,573,16343,-1,-33,-3,3,-1,1
4.390059,-182,582,16334,0,-35,-4,4,-3,0
4.400060,-184,591,16320,0,-33,-3,4,-1,1
4.410060,-178,583,16326,-1,-33,-3,3,-1,1
4.420073,-182,584,16329,-3,-29,-2,1,3,2
4.430060,-197,565,16332,-4,-30,-3,0,2,1
4.440060,-205,556,16324,-4,-30,-3,0,2,1
4.450060,-214,550,16322,-1,-33,-4,3,-1,0
4.460060,-200,561,16321,0,-35,-3,4,-3,1
4.470060,-172,577,16328,1,-36,-3,5,-4,1
4.480061,-160,587,16336,0,-34,-2,4,-2,2
4.490061,-166,585,16331,-6,-31,-2,-2,1,2
4.500060,-181,561,16338,-8,-29,-2,-4,3,2
4.510060,-184,554,16345,-9,-29,-2,-5,3,2
4.520060,-181,555,16355,-3,-33,-3,1,-1,1
4.530060,-173,562,16349,1,-36,-3,5,-4,1
4.540060,-169,567,16347,0,-36,-2,4,-4,2
4.550060,-159,588,16346,-2,-33,-1,2,-1,3
4.560076,-175,585,16347,-5,-30,-1,-1,2,3
4.570060,-196,566,16345,-8,-29,-1,-4,3,3
4.580075,-191,564,16340,-6,-30,-2,-2,2,2
4.590060,-193,560,16335,0,-33,-2,4,-1,2
4.600060,-188,567,16333,1,-35,-1,5,-3,3
4.610061,-183,577,16341,0,-34,-2,4,-2,2
4.620088,-171,586,16345,-2,-33,-2,2,-1,2
4.630123,-175,587,16341,-4,-30,-3,0,2,1
4.640085,-195,563,16347,-6,-30,-2,-2,2,2
4.650089,-195,564,16348,-5,-31,-2,-1,1,2
4.660092,-190,572,16359,0,-34,-4,4,-2,0
4.670094,-184,585,16359,0,-35,-4,4,-3,0
4.680084,-177,585,16356,-1,-33,-3,3,-1,1
4.690084,-182,581,16363,-3,-33,-3,1,-1,1
4.700093,-183,574,16347,-5,-31,-4,-1,1,0
4.710125,-190,572,16352,-4,-32,-2,0,0,2
4.720106,-196,562,16359,-4,-34,-3,0,-2,1
4.730083,-195,569,16358,-1,-36,-3,3,-4,1
4.740113,-191,559,16354,-1,-36,-3,3,-4,1
4.750073,-187,553,16344,-3,-34,-2,1,-2,2
4.760063,-178,555,16345,-3,-34,-3,1,-2,1
4.770058,-180,568,16343,-5,-33,-2,-1,-1,2
4.780062,-194,570,16343,-4,-32,-3,0,0,1
4.790059,-195,556,16343,-4,-32,-3,0,0,1
4.800061,-187,554,16342,-2,-33,-3,2,-1,1
4.810060,-181,558,16340,-1,-33,-3,3,-1,1
4.820073,-177,557,16338,-1,-33,-3,3,-1,1
4.830060,-178,557,16336,-2,-34,-2,2,-2,2
4.840062,-179,564,16321,-3,-33,-1,1,-1,3
4.850060,-196,557,16332,-2,-33,-4,2,-1,0
4.860065,-191,559,16330,-1,-33,-4,3,-1,0
4.870060,-187,564,16344,-3,-32,-4,1,0,0
4.880062,-195,572,16337,-3,-32,-4,1,0,0
4.890060,-195,572,16338,-3,-32,-4,1,0,0
4.900060,-181,568,16329,-2,-33,-3,2,-1,1
4.910060,-184,570,16326,-4,-32,-3,0,0,1
4.920062,-189,571,16343,-5,-32,-3,-1,0,1
4.930060,-188,567,16347,-5,-32,-2,-1,0,2
4.940061,-184,572,16345,-2,-32,-3,2,0,1
4.950060,-180,578,16348,-1,-32,-4,3,0,0
4.960060,-181,573,16339,-2,-33,-3,2,-1,1
4.970060,-189,573,16343,-4,-32,-4,0,0,0
4.980061,-194,568,16337,-5,-31,-4,-1,1,0
4.990060,-196,573,16333,-5,-31,-3,-1,1,1
5.000064,-200,562,16338,-4,-31,-3,0,1,1
5.010060,-197,564,16336,-4,-33,-2,0,-1,2
5.020073,-191,567,16348,-2,-33,-2,2,-1,2
5.030060,-196,563,16350,-1,-33,-2,3,-1,2
5.040060,-199,566,16343,-3,-31,-1,1,1,3
5.050060,-198,570,16344,-3,-31,-1,1,1,3
5.060060,-194,569,16342,-3,-31,-1,1,1,3
5.070077,-189,560,16345,-1,-32,-2,3,0,2
5.080085,-189,561,16343,-1,-32,-2,3,0,2
5.090064,-191,579,16331,-3,-31,-2,1,1,2
5.100061,-193,582,16326,-4,-30,-2,0,2,2
5.110059,-187,575,16337,-4,-30,-3,0,2,1
5.120059,-180,572,16338,-3,-30,-4,1,2,0
5.130059,-186,574,16332,-2,-31,-4,2,1,0
5.140058,-174,584,16326,-2,-32,-3,2,0,1
5.150060,-178,584,16331,-3,-32,-3,1,0,1
5.160059,-190,574,16340,-5,-32,-3,-1,0,1
5.170059,-192,569,16344,-5,-31,-4,-1,1,0
5.180058,-190,565,16345,-3,-30,-4,1,2,0
5.190059,-192,571,16348,-2,-32,-4,2,0,0
5.200058,-184,567,16343,-1,-34,-4,3,-2,0
5.210060,-197,572,16337,-2,-33,-3,2,-1,1
5.220059,-192,582,16340,-3,-33,-4,1,-1,0
5.230060,-204,568,16348,-4,-32,-3,0,0,1
5.240059,-200,568,16351,-5,-31,-3,-1,1,1
5.250059,-196,564,16345,-2,-32,-4,2,0,0
5.260058,-195,568,16342,-2,-32,-4,2,0,0
5.270060,-193,566,16344,-1,-34,-4,3,-2,0
5.280073,-185,569,16352,-2,-32,-4,2,0,0
5.290058,-188,571,16347,-3,-31,-4,1,1,0
5.300059,-187,563,16351,-4,-30,-3,0,2,1
5.310059,-184,560,16343,-3,-32,-4,1,0,0
5.320059,-185,563,16346,0,-34,-4,4,-2,0
5.330059,-188,576,16347,0,-33,-4,4,-1,0
5.340058,-195,572,16340,-2,-32,-5,2,0,-1
5.350090,-195,557,16342,-3,-31,-4,1,1,0
5.360077,-199,560,16338,-4,-30,-3,0,2,1
5.370059,-186,569,16361,-4,-32,-2,0,0,2
5.380057,-183,567,16352,-2,-32,-2,2,0,2
5.390060,-183,567,16341,-3,-32,-3,1,0,1
5.400058,-174,583,16328,-3,-32,-4,1,0,0
5.410058,-180,584,16343,-3,-33,-3,1,-1,1
5.420058,-173,579,16343,-4,-31,-3,0,1,1
5.430060,-181,578,16339,-5,-31,-3,-1,1,1
5.440058,-194,577,16340,-2,-30,-2,2,2,2
5.450059,-193,574,16343,-2,-31,-2,2,1,2
5.460059,-196,577,16338,-2,-32,-1,2,0,3
5.470059,-196,578,16352,-3,-32,-1,1,0,3
5.480058,-198,581,16346,-4,-32,0,0,0,4
5.490059,-206,578,16339,-4,-32,0,0,0,4
5.500057,-201,569,16333,-3,-32,-2,1,0,2
5.510059,-191,570,16334,-3,-33,-1,1,-1,3
5.520057,-185,569,16340,-4,-32,-2,0,0,2
5.530059,-186,574,16340,-2,-32,-2,2,0,2
5.540058,-184,569,16337,-2,-33,-2,2,-1,2
5.550059,-186,570,16331,-2,-33,-2,2,-1,2
5.560070,-173,570,16337,-3,-33,-2,1,-1,2
5.570059,-173,577,16344,-3,-33,-3,1,-1,1
5.580058,-178,573,16341,-4,-32,-5,0,0,-1
5.590058,-184,556,16338,-4,-31,-5,0,1,-1
5.600057,-186,557,16330,-3,-33,-5,1,-1,-1
5.610062,-183,570,16329,-1,-35,-6,3,-3,-2
5.620059,-186,570,16340,-2,-35,-5,2,-3,-1
5.630059,-192,570,16349,-1,-32,-5,3,0,-1
5.640058,-187,572,16347,-3,-32,-5,1,0,-1
5.650059,-193,573,16345,-3,-31,-5,1,1,-1
5.660058,-189,559,16348,-3,-32,-3,1,0,1
5.670059,-189,565,16354,-2,-32,-2,2,0,2
5.680062,-188,568,16347,-1,-32,-1,3,0,3
5.690060,-193,567,16340,-1,-32,0,3,0,4
5.700058,-185,561,16335,0,-31,-1,4,1,3
5.710059,-191,563,16341,0,-31,-1,4,1,3
5.720058,-203,555,16350,-1,-30,-1,3,2,3
5.730059,-198,554,16362,0,-32,-1,4,0,3
5.740058,-199,546,16349,-1,-32,-2,3,0,2
5.750058,-201,553,16348,-1,-32,-4,3,0,0
5.760057,-206,556,16340,-2,-32,-3,2,0,1
5.770059,-204,551,16352,-3,-30,-3,1,2,1
5.780058,-211,555,16348,-4,-31,-3,0,1,1
5.790059,-204,556,16339,-3,-32,-2,1,0,2
5.800057,-199,547,16327,-4,-32,-2,0,0,2
5.810059,-205,552,16324,-3,-32,-3,1,0,1
5.820058,-195,560,16337,-5,-31,-3,-1,1,1
5.830059,-195,561,16334,-4,-31,-3,0,1,1
5.840058,-196,561,16332,-2,-32,-3,2,0,1
5.850058,-192,567,16334,-2,-31,-3,2,1,1
5.860058,-196,561,16333,-2,-32,-4,2,0,0
5.870059,-196,568,16334,-3,-30,-3,1,2,1
5.880059,-188,569,16329,-5,-29,-4,-1,3,0
5.890058,-188,545,16340,-3,-31,-3,1,1,1
5.900059,-192,551,16340,-2,-32,-3,2,0,1
5.910058,-198,560,16338,-2,-32,-5,2,0,-1
5.920059,-188,559,16355,-2,-32,-4,2,0,0
5.930059,-197,557,16354,-2,-33,-4,2,-1,0
5.940059,-212,569,16345,-4,-31,-5,0,1,-1
5.950058,-212,573,16342,-5,-30,-5,-1,2,-1
5.960059,-202,572,16353,-3,-32,-4,1,0,0
5.970059,-192,565,16360,-1,-33,-4,3,-1,0
5.980058,-181,568,16360,0,-34,-3,4,-2,1
5.990058,-175,575,16344,-1,-33,-4,3,-1,0
6.000057,-178,574,16344,-2,-32,-4,2,0,0
6.010059,-192,559,16343,-7,-30,-4,-3,2,0
6.020057,-186,547,16341,-7,-29,-4,-3,3,0
6.030059,-180,556,16345,-3,-31,-5,1,1,-1
6.040057,-180,571,16335,-1,-34,-4,3,-2,0
6.050059,-175,572,16330,0,-33,-4,4,-1,0
6.060057,-172,571,16346,-3,-32,-4,1,0,0
6.070059,-182,572,16347,-6,-30,-4,-2,2,0
6.080057,-183,563,16357,-7,-30,-3,-3,2,1
6.090058,-190,561,16352,-5,-31,-3,-1,1,1
6.100057,-188,558,16348,-2,-34,-2,2,-2,2
6.110058,-183,565,16347,-1,-36,-4,3,-4,0
6.120057,-181,558,16353,0,-36,-3,4,-4,1
6.130058,-176,558,16357,-4,-33,-2,0,-1,2
6.140059,-184,561,16353,-7,-31,-2,-3,1,2
6.150059,-191,551,16349,-6,-31,-2,-2,1,2
6.160059,-200,550,16344,-4,-32,-2,0,0,2
6.170058,-195,557,16354,0,-36,-3,4,-4,1
6.180058,-182,565,16352,-1,-36,-3,3,-4,1
6.190059,-186,563,16343,-3,-34,-4,1,-2,0
6.200058,-177,561,16352,-5,-31,-3,-1,1,1
6.210059,-175,555,16343,-5,-30,-4,-1,2,0
6.220057,-174,567,16356,-4,-31,-4,0,1,0
6.230058,-174,563,16355,-3,-30,-4,1,2,0
6.240061,-175,554,16355,-2,-32,-4,2,0,0
6.250058,-173,552,16353,-2,-32,-4,2,0,0
6.260058,-182,563,16354,-2,-32,-3,2,0,1
6.270059,-176,561,16358,-2,-30,-3,2,2,1
6.280058,-171,567,16357,-3,-30,-3,1,2,1
6.290059,-185,566,16346,-2,-31,-4,2,1,0
6.300058,-183,564,16348,0,-32,-4,4,0,0
6.310058,-182,567,16339,0,-32,-3,4,0,1
6.320058,-192,570,16365,-1,-31,-4,3,1,0
6.330059,-189,567,16355,-2,-30,-4,2,2,0
6.340058,-191,558,16354,-3,-29,-3,1,3,1
6.350058,-197,561,16347,-3,-30,-4,1,2,0
6.360058,-192,565,16351,-1,-31,-3,3,1,1
6.370058,-199,559,16360,-1,-31,-3,3,1,1
6.380058,-200,562,16354,-1,-32,-3,3,0,1
6.390058,-203,582,16351,0,-33,-3,4,-1,1
6.400058,-199,579,16348,0,-33,-3,4,-1,1
6.410058,-194,570,16360,-1,-33,-3,3,-1,1
6.420057,-188,572,16365,-1,-32,-4,3,0,0
6.430058,-189,565,16356,-2,-31,-3,2,1,1
6.440059,-190,568,16362,-2,-31,-3,2,1,1
6.450058,-186,561,16357,-1,-32,-3,3,0,1
6.460058,-189,546,16352,-2,-30,-3,2,2,1
6.470058,-196,559,16353,-3,-31,-3,1,1,1
6.480059,-187,565,16362,-2,-32,-4,2,0,0
6.490058,-185,566,16370,-1,-33,-4,3,-1,0
6.500058,-178,580,16364,-2,-32,-4,2,0,0
6.510058,-184,576,16356,-2,-33,-4,2,-1,0
6.520058,-187,575,16359,-2,-33,-4,2,-1,0
6.530058,-183,569,16354,-2,-34,-4,2,-2,0
6.540118,-182,576,16345,-3,-32,-3,1,0,1
6.550059,-188,572,16334,-4,-31,-4,0,1,0
6.560066,-188,568,16337,-4,-32,-4,0,0,0
6.570058,-191,567,16353,-4,-32,-4,0,0,0
6.580058,-181,573,16351,-4,-32,-3,0,0,1
6.590058,-178,569,16351,-4,-32,-4,0,0,0
6.600058,-172,560,16345,-4,-32,-4,0,0,0
6.610058,-178,556,16349,-4,-32,-3,0,0,1
6.620103,-183,556,16353,-3,-32,-4,1,0,0
6.630071,-181,554,16354,-3,-33,-3,1,-1,1
6.640056,-185,546,16357,-3,-33,-3,1,-1,1
6.650059,-189,551,16346,-4,-32,-3,0,0,1
6.660058,-181,558,16345,-5,-31,-3,-1,1,1
6.670057,-188,559,16354,-5,-31,-4,-1,1,0
6.680058,-191,555,16357,-5,-32,-4,-1,0,0
6.690059,-179,555,16350,-2,-33,-4,2,-1,0
6.700058,-175,545,16347,-1,-33,-5,3,-1,-1
6.710058,-179,549,16347,-1,-33,-4,3,-1,0
6.720057,-180,560,16339,-2,-32,-4,2,0,0
6.730057,-180,560,16351,-4,-31,-4,0,1,0
6.740058,-187,554,16343,-5,-30,-3,-1,2,1
6.750057,-190,553,16334,-4,-31,-4,0,1,0
6.760057,-191,553,16329,-1,-31,-4,3,1,0
6.770058,-191,558,16350,0,-32,-4,4,0,0
6.780058,-195,558,16345,0,-32,-3,4,0,1
6.790058,-185,566,16338,-2,-30,-2,2,2,2
6.800057,-192,568,16335,-2,-30,-2,2,2,2
6.810057,-190,571,16354,-3,-31,-2,1,1,2
6.820056,-190,569,16351,-3,-32,-1,1,0,3
6.830058,-187,576,16356,-3,-34,-1,1,-2,3
6.840057,-188,582,16362,-1,-33,-2,3,-1,2
6.850057,-190,587,16358,-1,-34,-2,3,-2,2
6.860058,-178,572,16340,-4,-31,-3,0,1,1
6.870058,-175,575,16346,-4,-30,-3,0,2,1
6.880058,-181,578,16339,-5,-32,-4,-1,0,0
6.890058,-184,572,16347,-3,-32,-3,1,0,1
6.900058,-194,567,16346,-3,-32,-3,1,0,1
6.910058,-193,557,16343,-2,-34,-3,2,-2,1
6.920058,-198,557,16353,-2,-32,-4,2,0,0
6.930058,-199,561,16341,-4,-32,-4,0,0,0
6.940058,-192,554,16342,-3,-31,-3,1,1,1
6.950057,-191,564,16343,-3,-32,-3,1,0,1
6.960058,-188,569,16324,-3,-32,-3,1,0,1
6.970058,-195,566,16319,-4,-31,-3,0,1,1
6.980057,-192,572,16334,-3,-32,-2,1,0,2
6.990076,-187,584,16339,-2,-33,-2,2,-1,2
7.000058,-184,575,16332,-2,-34,-3,2,-2,1
7.010058,-178,572,16336,-2,-34,-3,2,-2,1
7.020056,-183,566,16348,-3,-32,-3,1,0,1
7.030057,-192,573,16346,-4,-32,-3,0,0,1
7.040058,-199,575,16336,-3,-33,-4,1,-1,0
7.050057,-190,566,16330,-2,-33,-3,2,-1,1
7.060102,-174,564,16332,-3,-32,-4,1,0,0
7.070105,-183,576,16352,-4,-32,-2,0,0,2
7.080070,-193,572,16361,-4,-32,-3,0,0,1
7.090060,-199,573,16349,-2,-32,-3,2,0,1
7.100058,-208,568,16330,-4,-31,-2,0,1,2
7.110059,-208,571,16331,-4,-31,-3,0,1,1
7.120057,-201,569,16345,-4,-32,-3,0,0,1
7.130059,-199,555,16346,-2,-33,-3,2,-1,1
7.140058,-190,558,16343,-1,-33,-4,3,-1,0
7.150059,-194,563,16333,-3,-32,-4,1,0,0
7.160058,-191,567,16332,-5,-31,-4,-1,1,0
7.170059,-202,564,16343,-3,-32,-5,1,0,-1
7.180081,-213,567,16344,-2,-32,-5,2,0,-1
7.190059,-225,565,16354,-3,-32,-5,1,0,-1
7.200057,-215,569,16348,-4,-31,-5,0,1,-1
7.210060,-207,565,16346,-3,-32,-4,1,0,0
7.220056,-197,559,16357,-2,-33,-4,2,-1,0
7.230059,-195,558,16365,-3,-33,-4,1,-1,0
7.240067,-183,554,16361,-4,-33,-3,0,-1,1
7.250059,-176,562,16361,-5,-32,-3,-1,0,1
7.260057,-175,564,16355,-3,-33,-3,1,-1,1
7.270059,-183,567,16360,-2,-34,-4,2,-2,0
7.280057,-184,566,16347,-2,-32,-2,2,0,2
7.290059,-179,576,16335,-2,-32,-2,2,0,2
7.300058,-182,576,16338,-2,-31,-3,2,1,1
7.310058,-186,563,16350,-1,-31,-4,3,1,0
7.320076,-181,551,16349,-1,-32,-4,3,0,0
7.330067,-186,556,16359,-2,-32,-4,2,0,0
7.340058,-185,555,16353,-2,-31,-4,2,1,0
7.350058,-191,552,16349,-3,-32,-4,1,0,0
7.360057,-180,563,16351,-3,-32,-4,1,0,0
7.370059,-190,562,16364,-3,-33,-3,1,-1,1
7.380069,-178,563,16352,-6,-31,-4,-2,1,0
7.390059,-170,562,16348,-6,-30,-3,-2,2,1
7.400057,-183,564,16356,-3,-32,-4,1,0,0
7.410058,-185,578,16367,-2,-33,-4,2,-1,0
7.420057,-184,585,16384,-1,-33,-4,3,-1,0
7.430060,-178,575,16369,-3,-32,-3,1,0,1
7.440067,-176,579,16359,-3,-32,-2,1,0,2
7.450058,-179,576,16353,-3,-32,-3,1,0,1
7.460058,-182,574,16355,-3,-31,-3,1,1,1
7.470059,-183,567,16360,-1,-33,-4,3,-1,0
7.480057,-186,567,16365,-1,-33,-4,3,-1,0
7.490059,-188,573,16361,-2,-34,-5,2,-2,-1
7.500057,-183,577,16358,-2,-34,-4,2,-2,0
7.510059,-181,574,16359,-3,-34,-4,1,-2,0
7.520057,-184,569,16362,-6,-33,-4,-2,-1,0
7.530058,-194,571,16362,-5,-33,-3,-1,-1,1
7.540058,-188,576,16359,-2,-34,-2,2,-2,2
7.550058,-182,581,16353,-2,-36,-2,2,-4,2
7.560071,-186,583,16348,-2,-34,-3,2,-2,1
7.570060,-191,574,16358,-4,-33,-3,0,-1,1
7.580058,-191,569,16363,-4,-31,-2,0,1,2
7.590060,-188,573,16369,-4,-32,-2,0,0,2
7.600057,-198,560,16354,-3,-33,-1,1,-1,3
7.610058,-198,561,16357,-3,-33,-1,1,-1,3
7.620058,-201,572,16360,-4,-32,-1,0,0,3
7.630058,-200,565,16365,-5,-32,-2,-1,0,2
7.640067,-194,552,16364,-4,-32,-2,0,0,2
7.650059,-187,560,16361,-4,-32,-3,0,0,1
7.660057,-174,561,16352,-4,-31,-4,0,1,0
7.670090,-184,555,16360,-3,-33,-3,1,-1,1
7.680111,-186,563,16366,-2,-32,-3,2,0,1
7.690088,-194,574,16345,-3,-33,-2,1,-1,2
7.700072,-193,586,16346,-3,-32,-3,1,0,1
7.710079,-195,594,16358,-4,-32,-2,0,0,2
7.720083,-197,576,16365,-2,-34,-3,2,-2,1
7.730071,-193,558,16372,-1,-35,-2,3,-3,2
7.740086,-175,557,16356,0,-35,-1,4,-3,3
7.750116,-183,561,16357,-1,-33,-2,3,-1,2
7.760108,-188,558,16351,-3,-31,-2,1,1,2
7.770082,-188,553,16355,-2,-32,-2,2,0,2
7.780094,-209,562,16365,-3,-33,-2,1,-1,2
7.790056,-203,554,16356,-2,-32,-2,2,0,2
7.800056,-200,544,16344,-3,-32,-3,1,0,1
7.810055,-196,547,16339,-3,-32,-3,1,0,1
7.820061,-195,548,16347,-3,-33,-3,1,-1,1
7.830057,-178,560,16344,-3,-34,-3,1,-2,1
7.840055,-173,559,16348,-3,-35,-4,1,-3,0
7.850057,-163,555,16338,-2,-34,-3,2,-2,1
7.860055,-170,565,16338,-2,-33,-2,2,-1,2
7.870057,-181,563,16342,-3,-32,-2,1,0,2
7.880057,-179,565,16334,-3,-31,-2,1,1,2
7.890057,-179,565,16330,-3,-30,-3,1,2,1
7.900056,-180,565,16325,-2,-31,-3,2,1,1
7.910057,-175,563,16331,-2,-32,-3,2,0,1
7.920055,-182,572,16339,-3,-32,-1,1,0,3
7.930057,-189,573,16341,-3,-32,-2,1,0,2
7.940056,-183,574,16338,-3,-32,-2,1,0,2
7.950057,-175,566,16340,-3,-32,-2,1,0,2
7.960056,-182,567,16339,-2,-33,-2,2,-1,2
7.970056,-179,572,16354,-1,-34,-3,3,-2,1
7.980055,-187,560,16354,-2,-34,-4,2,-2,0
7.990058,-187,562,16349,-5,-31,-4,-1,1,0
8.000056,-188,559,16336,-5,-31,-4,-1,1,0
8.010056,-191,555,16323,-5,-31,-4,-1,1,0
8.020058,-195,551,16337,-2,-32,-4,2,0,0
8.030056,-199,550,16342,-2,-33,-3,2,-1,1
8.040056,-187,551,16336,-1,-34,-4,3,-2,0
8.050057,-187,559,16339,-1,-34,-3,3,-2,1
8.060055,-193,557,16337,-3,-32,-4,1,0,0
8.070057,-194,560,16350,-3,-32,-4,1,0,0
8.080056,-189,565,16352,-3,-32,-3,1,0,1
8.090057,-190,573,16338,-1,-31,-3,3,1,1
8.100056,-188,563,16345,-1,-31,-2,3,1,2
8.110056,-189,560,16338,-3,-32,-3,1,0,1
8.120056,-187,564,16351,-4,-31,-3,0,1,1
8.130056,-194,576,16348,-4,-32,-3,0,0,1
8.140055,-194,563,16341,-2,-32,-3,2,0,1
8.150054,-193,561,16338,-1,-33,-3,3,-1,1
8.160055,-185,560,16342,-1,-34,-2,3,-2,2
8.170056,-178,567,16356,0,-33,-1,4,-1,3
8.180055,-178,579,16350,-2,-31,-2,2,1,2
8.190056,-183,569,16341,-3,-31,-3,1,1,1
8.200055,-188,569,16340,-4,-32,-3,0,0,1
8.210057,-197,556,16341,-3,-33,-3,1,-1,1
8.220058,-198,552,16347,-2,-33,-3,2,-1,1
8.230056,-197,563,16348,-3,-35,-4,1,-3,0
8.240055,-199,574,16342,-3,-35,-4,1,-3,0
8.250057,-185,572,16340,-3,-33,-3,1,-1,1
8.260055,-171,560,16339,-3,-32,-2,1,0,2
8.270056,-176,560,16354,-2,-33,-2,2,-1,2
8.280056,-177,551,16347,-1,-33,-1,3,-1,3
8.290056,-181,551,16343,-2,-33,-1,2,-1,3
8.300056,-180,551,16339,-4,-31,-1,0,1,3
8.310056,-178,548,16330,-5,-31,-2,-1,1,2
8.320054,-181,546,16343,-4,-32,-4,0,0,0
8.330055,-166,560,16336,-3,-32,-3,1,0,1
8.340055,-171,559,16333,-4,-32,-4,0,0,0
8.350056,-179,567,16330,-4,-31,-4,0,1,0
8.360055,-185,568,16333,-3,-32,-2,1,0,2
8.370056,-180,561,16341,-2,-32,-2,2,0,2
8.380055,-182,565,16351,-2,-32,-2,2,0,2
8.390057,-173,567,16348,-1,-32,-2,3,0,2
8.400055,-188,567,16352,-3,-33,-2,1,-1,2
8.410056,-178,562,16348,-3,-33,-2,1,-1,2
8.420056,-183,571,16362,-4,-33,-2,0,-1,2
8.430056,-178,574,16359,-3,-34,-2,1,-2,2
8.440055,-178,565,16354,-3,-33,-3,1,-1,1
8.450057,-187,546,16352,-2,-34,-3,2,-2,1
8.460055,-183,548,16343,-2,-33,-4,2,-1,0
8.470057,-187,557,16361,-3,-32,-4,1,0,0
8.480055,-189,548,16355,-5,-31,-4,-1,1,0
8.490058,-195,557,16347,-4,-32,-4,0,0,0
8.500057,-192,562,16347,-3,-32,-3,1,0,1
8.510057,-194,573,16345,-3,-33,-4,1,-1,0
8.520054,-199,561,16353,-3,-33,-4,1,-1,0
8.530056,-190,561,16365,-5,-32,-5,-1,0,-1
8.540056,-197,554,16358,-5,-31,-4,-1,1,0
8.550056,-196,560,16351,-4,-31,-5,0,1,-1
8.560061,-191,564,16335,-2,-34,-5,2,-2,-1
8.570056,-188,567,16346,-2,-34,-5,2,-2,-1
8.580055,-185,571,16347,-2,-33,-4,2,-1,0
8.590055,-187,568,16346,-3,-32,-3,1,0,1
8.600055,-189,566,16347,-3,-32,-4,1,0,0
8.610056,-200,578,16356,-5,-32,-4,-1,0,0
8.620059,-187,580,16352,-4,-31,-3,0,1,1
8.630056,-188,578,16353,-2,-33,-2,2,-1,2
8.640066,-187,576,16356,-1,-33,-3,3,-1,1
8.650057,-183,570,16340,-1,-33,-3,3,-1,1
8.660056,-180,570,16347,-3,-31,-3,1,1,1
8.670056,-179,569,16359,-3,-31,-3,1,1,1
8.680054,-176,577,16368,-2,-32,-2,2,0,2
8.690056,-180,578,16370,-1,-33,-3,3,-1,1
8.700055,-189,578,16356,-1,-34,-3,3,-2,1
8.710056,-192,579,16348,-3,-32,-3,1,0,1
8.720057,-193,574,16350,-4,-31,-4,0,1,0
8.730070,-199,574,16353,-4,-31,-3,0,1,1
8.740061,-195,571,16352,-3,-32,-3,1,0,1
8.750073,-192,569,16344,-2,-33,-3,2,-1,1
8.760059,-202,561,16342,-2,-33,-4,2,-1,0
8.770056,-207,563,16354,-2,-33,-3,2,-1,1
8.780056,-204,576,16352,-2,-33,-2,2,-1,2
8.790055,-186,567,16355,-4,-33,-3,0,-1,1
8.800056,-190,556,16343,-4,-33,-4,0,-1,0
8.810055,-202,561,16341,-3,-34,-3,1,-2,1
8.820058,-195,566,16355,-1,-34,-4,3,-2,0
8.830055,-199,581,16350,-2,-34,-4,2,-2,0
8.840072,-193,579,16354,-3,-33,-4,1,-1,0
8.850066,-180,588,16342,-3,-32,-4,1,0,0
8.860055,-185,579,16340,-4,-33,-4,0,-1,0
8.870057,-190,573,16352,-3,-33,-2,1,-1,2
8.880056,-187,568,16363,-4,-32,-3,0,0,1
8.890056,-197,563,16354,-2,-33,-4,2,-1,0
8.900056,-195,566,16358,-4,-32,-3,0,0,1
8.910056,-198,567,16349,-3,-32,-3,1,0,1
8.920055,-187,582,16357,-3,-32,-3,1,0,1
8.930056,-180,578,16352,-3,-32,-4,1,0,0
8.940054,-183,572,16334,-4,-32,-4,0,0,0
8.950055,-187,571,16329,-3,-32,-3,1,0,1
8.960055,-191,569,16325,-4,-33,-3,0,-1,1
8.970070,-180,560,16340,-3,-34,-4,1,-2,0
8.980056,-178,562,16345,-2,-34,-4,2,-2,0
8.990056,-181,562,16338,-2,-33,-3,2,-1,1
9.000055,-180,563,16333,-4,-33,-4,0,-1,0
9.010056,-180,567,16335,-3,-31,-4,1,1,0
9.020060,-177,571,16337,-3,-31,-4,1,1,0
9.030054,-186,565,16338,-3,-31,-5,1,1,-1
9.040088,-199,548,16332,-2,-32,-4,2,0,0
9.050080,-184,550,16327,-1,-33,-4,3,-1,0
9.060057,-194,566,16324,0,-34,-4,4,-2,0
9.070057,-204,571,16329,0,-34,-4,4,-2,0
9.080070,-198,557,16340,-3,-31,-4,1,1,0
9.090055,-208,548,16331,-3,-31,-3,1,1,1
9.100062,-214,546,16330,-2,-31,-3,2,1,1
9.110054,-210,559,16336,-1,-33,-3,3,-1,1
9.120053,-197,562,16353,0,-32,-2,4,0,2
9.130054,-187,570,16361,0,-33,-2,4,-1,2
9.140055,-193,566,16367,-2,-32,-3,2,0,1
9.150056,-190,561,16355,-4,-32,-2,0,0,2
9.160056,-202,564,16352,-3,-32,-2,1,0,2
9.170056,-195,570,16353,-3,-33,-2,1,-1,2
9.180054,-190,558,16346,-3,-32,-3,1,0,1
9.190056,-187,560,16336,-3,-32,-3,1,0,1
9.200055,-190,563,16328,-5,-31,-3,-1,1,1
9.210056,-188,567,16332,-5,-33,-4,-1,-1,0
9.220060,-189,562,16350,-3,-34,-2,1,-2,2
9.230055,-183,567,16347,-2,-34,-2,2,-2,2
9.240055,-173,568,16346,-2,-34,-2,2,-2,2
9.250054,-169,567,16348,-2,-34,-2,2,-2,2
9.260055,-173,561,16340,-2,-33,-2,2,-1,2
9.270055,-189,560,16356,-3,-33,-1,1,-1,3
9.280055,-184,563,16350,-3,-33,-1,1,-1,3
9.290055,-176,561,16360,-2,-32,-2,2,0,2
9.300055,-192,566,16352,-2,-33,-3,2,-1,1
9.310055,-190,566,16338,-3,-32,-3,1,0,1
9.320055,-196,559,16349,-4,-31,-4,0,1,0
9.330055,-196,566,16349,-3,-31,-4,1,1,0
9.340084,-188,568,16336,-3,-31,-4,1,1,0
9.350083,-190,575,16337,-2,-32,-3,2,0,1
9.360083,-188,580,16332,-2,-32,-3,2,0,1
9.370083,-190,571,16358,-2,-32,-4,2,0,0
9.380082,-190,568,16347,-2,-31,-3,2,1,1
9.390082,-176,568,16342,-3,-30,-3,1,2,1
9.400079,-178,562,16341,-4,-30,-3,0,2,1
9.410082,-176,583,16349,-3,-32,-3,1,0,1
9.420078,-173,574,16357,-3,-33,-3,1,-1,1
9.430081,-173,574,16344,-3,-32,-5,1,0,-1
9.440084,-180,578,16338,-4,-32,-5,0,0,-1
9.450083,-180,576,16342,-4,-33,-5,0,-1,-1
9.460083,-183,586,16348,-4,-33,-5,0,-1,-1
9.470083,-184,582,16348,-4,-33,-5,0,-1,-1
9.480082,-192,576,16343,-3,-32,-5,1,0,-1
9.490083,-195,572,16348,-4,-32,-5,0,0,-1
9.500082,-195,558,16343,-2,-32,-3,2,0,1
9.510083,-188,561,16336,-3,-32,-3,1,0,1
9.520082,-182,562,16339,-4,-31,-2,0,1,2
9.530082,-175,561,16341,-3,-32,-2,1,0,2
9.540082,-180,569,16336,-3,-32,-2,1,0,2
9.550081,-179,578,16328,-4,-33,-2,0,-1,2
9.560088,-173,581,16332,-4,-33,-2,0,-1,2
9.570079,-177,574,16335,-4,-33,-2,0,-1,2
9.580083,-188,576,16346,-4,-32,-2,0,0,2
9.590081,-185,573,16350,-3,-33,-2,1,-1,2
9.600082,-180,566,16348,-3,-34,-3,1,-2,1
9.610082,-181,562,16352,-3,-33,-3,1,-1,1
9.620087,-184,566,16353,-4,-32,-3,0,0,1
9.630081,-188,553,16344,-3,-32,-3,1,0,1
9.640095,-188,564,16340,-3,-33,-4,1,-1,0
9.650089,-195,566,16337,-3,-33,-3,1,-1,1
9.660081,-195,570,16334,-3,-33,-4,1,-1,0
9.670084,-192,563,16342,-2,-34,-3,2,-2,1
9.680082,-199,565,16348,-2,-33,-4,2,-1,0
9.690080,-194,570,16354,-2,-33,-1,2,-1,3
9.700084,-191,575,16341,-2,-33,-1,2,-1,3
9.710083,-185,577,16337,-3,-34,-1,1,-2,3
9.720079,-183,565,16350,-3,-32,0,1,0,4
9.730083,-193,566,16359,-3,-31,-1,1,1,3
9.740079,-189,572,16360,-2,-31,-2,2,1,2
9.750074,-182,576,16347,-3,-32,-2,1,0,2
9.760085,-185,577,16339,-3,-32,-2,1,0,2
9.770074,-171,580,16345,-3,-33,-2,1,-1,2
9.780076,-168,570,16338,-2,-34,-3,2,-2,1
9.790077,-177,562,16337,-3,-34,-3,1,-2,1
9.800076,-166,565,16339,-3,-32,-2,1,0,2
9.810076,-173,564,16333,-3,-32,-3,1,0,1
9.820084,-177,563,16340,-2,-33,-3,2,-1,1
9.830071,-173,562,16336,-1,-34,-3,3,-2,1
9.840078,-174,568,16337,0,-33,-2,4,-1,2
9.850083,-173,567,16338,-1,-33,-3,3,-1,1
9.860091,-168,558,16329,-3,-32,-3,1,0,1
9.870085,-176,553,16341,-3,-33,-3,1,-1,1
9.880082,-182,559,16340,-4,-32,-3,0,0,1
9.890083,-170,570,16331,-3,-33,-2,1,-1,2
9.900083,-162,572,16341,-4,-33,-2,0,-1,2
9.910083,-167,573,16351,-3,-32,-3,1,0,1
9.920083,-172,570,16351,-3,-32,-3,1,0,1
9.930083,-176,574,16340,-4,-33,-3,0,-1,1
9.940083,-178,568,16340,-4,-32,-4,0,0,0
9.950082,-180,555,16336,-2,-35,-4,2,-3,0
9.960082,-186,561,16335,-2,-35,-4,2,-3,0
9.970078,-182,559,16345,-2,-35,-4,2,-3,0
9.980082,-179,578,16348,-3,-34,-3,1,-2,1
9.990081,-190,573,16342,-3,-34,-3,1,-2,1
10.000091,-191,574,16335,-3,-34,-2,1,-2,2
10.010087,-193,578,16337,-2,-35,-2,2,-3,2
10.020082,-190,592,16340,-2,-35,-2,2,-3,2
10.030080,-189,577,16341,-3,-34,-1,1,-2,3
10.040083,-191,574,16341,-4,-33,-1,0,-1,3
10.050083,-198,579,16338,-3,-32,-3,1,0,1
10.060084,-192,578,16340,-2,-32,-2,2,0,2
10.070083,-188,576,16350,-2,-33,-2,2,-1,2
10.080087,-183,562,16343,-1,-33,-2,3,-1,2
10.090096,-182,556,16336,-1,-32,-2,3,0,2
10.100084,-184,560,16329,-2,-31,-3,2,1,1
10.110083,-193,555,16326,-2,-30,-3,2,2,1
10.120082,-182,562,16334,-3,-31,-3,1,1,1
10.130082,-181,564,16342,-3,-31,-3,1,1,1
10.140125,-192,568,16342,0,-32,-4,4,0,0
10.150082,-196,577,16331,-1,-32,-3,3,0,1
10.160083,-189,584,16321,-2,-33,-4,2,-1,0
10.170084,-186,579,16340,-3,-32,-2,1,0,2
10.180082,-180,580,16339,-3,-32,-2,1,0,2
10.190083,-167,573,16335,-3,-33,-2,1,-1,2
10.200079,-170,581,16338,-2,-32,-2,2,0,2
10.210082,-178,580,16333,-4,-32,-2,0,0,2
10.220081,-187,582,16348,-3,-31,-1,1,1,3
10.230079,-182,576,16357,-3,-31,-2,1,1,2
10.240082,-173,573,16346,-3,-32,-3,1,0,1
10.250084,-173,574,16337,-3,-32,-3,1,0,1
10.260082,-180,573,16329,-4,-33,-3,0,-1,1
10.270082,-185,574,16331,-3,-34,-3,1,-2,1
10.280084,-184,574,16329,-3,-33,-4,1,-1,0
10.290084,-189,584,16325,-3,-33,-4,1,-1,0
10.300080,-188,584,16324,-4,-32,-4,0,0,0
10.310082,-195,585,16323,-4,-32,-2,0,0,2
10.320082,-205,575,16339,-3,-33,-1,1,-1,3
10.330084,-190,571,16351,-2,-33,0,2,-1,4
10.340083,-179,573,16339,-3,-33,-1,1,-1,3
10.350083,-172,570,16336,-4,-32,0,0,0,4
10.360083,-180,577,16339,-4,-33,-1,0,-1,3
10.370080,-191,572,16352,-4,-33,0,0,-1,4
10.380087,-188,571,16347,-3,-33,-1,1,-1,3
10.390082,-194,573,16334,-4,-33,-1,0,-1,3
10.400082,-203,572,16332,-4,-32,-2,0,0,2
10.410084,-206,567,16322,-4,-33,-2,0,-1,2
10.420081,-192,575,16338,-3,-33,-2,1,-1,2
10.430079,-185,574,16346,-3,-33,-2,1,-1,2
10.440083,-190,568,16343,-4,-31,-1,0,1,3
10.450082,-206,556,16343,-3,-31,-2,1,1,2
10.460082,-211,561,16336,-1,-31,-3,3,1,1
10.470083,-209,563,16344,-1,-31,-3,3,1,1
10.480082,-194,564,16348,-2,-31,-3,2,1,1
10.490083,-195,561,16355,-4,-32,-3,0,0,1
10.500079,-183,570,16346,-3,-33,-3,1,-1,1
10.510082,-184,567,16338,-3,-32,-3,1,0,1
10.520082,-178,573,16343,-4,-32,-2,0,0,2
10.530082,-170,571,16344,-5,-30,-2,-1,2,2
10.540082,-170,569,16345,-6,-30,-1,-2,2,3
10.550082,-177,563,16324,-3,-32,-3,1,0,1
10.560087,-171,574,16319,-1,-32,-3,3,0,1
10.570113,-180,580,16329,-2,-31,-4,2,1,0
10.580156,-183,574,16334,-4,-30,-4,0,2,0
10.590124,-182,572,16332,-4,-30,-2,0,2,2
10.600079,-183,561,16339,-3,-30,-3,1,2,1
10.610081,-179,564,16329,-4,-31,-2,0,1,2
10.620080,-194,581,16348,-3,-33,-3,1,-1,1
10.630079,-193,584,16346,-1,-34,-2,3,-2,2
10.640079,-187,578,16344,-2,-34,-3,2,-2,1
10.650071,-187,569,16338,-3,-33,-3,1,-1,1
10.660067,-192,572,16330,-4,-31,-4,0,1,0
10.670069,-194,560,16350,-3,-31,-4,1,1,0
10.680067,-189,560,16345,-2,-31,-3,2,1,1
10.690068,-195,562,16327,-1,-33,-2,3,-1,2
10.700066,-196,568,16327,-1,-32,-3,3,0,1
10.710119,-199,564,16331,-2,-31,-2,2,1,2
10.720117,-191,560,16345,-3,-31,-1,1,1,3
10.730106,-183,565,16354,-2,-31,-2,2,1,2
10.740077,-177,564,16328,-1,-32,-2,3,0,2
10.750097,-182,551,16321,0,-32,-3,4,0,1
10.760092,-169,556,16322,-1,-33,-3,3,-1,1
10.770088,-178,571,16331,-1,-33,-3,3,-1,1
10.780101,-175,576,16326,-3,-32,-3,1,0,1
10.790091,-183,568,16337,-3,-31,-2,1,1,2
10.800094,-178,564,16342,-2,-31,-2,2,1,2
10.810091,-193,573,16330,-3,-33,-1,1,-1,3
10.820096,-194,569,16343,-4,-33,-2,0,-1,2
10.830095,-179,573,16351,-3,-33,-2,1,-1,2
10.840127,-181,570,16353,-3,-33,-3,1,-1,1
10.850111,-182,562,16352,-3,-33,-3,1,-1,1
10.860075,-185,561,16338,-3,-34,-3,1,-2,1
10.870076,-183,565,16348,-4,-33,-3,0,-1,1
10.880058,-183,575,16353,-2,-32,-4,2,0,0
10.890054,-184,569,16350,-3,-31,-3,1,1,1
10.900052,-186,567,16347,-1,-32,-2,3,0,2
10.910054,-173,568,16352,-2,-32,-2,2,0,2
10.920056,-168,570,16357,-2,-32,-2,2,0,2
10.930054,-167,571,16356,-2,-33,-2,2,-1,2
10.940053,-170,582,16346,-4,-32,-3,0,0,1
10.950054,-178,566,16346,-5,-31,-4,-1,1,0
10.960054,-187,566,16343,-4,-31,-3,0,1,1
10.970054,-192,571,16349,-1,-32,-3,3,0,1
10.980053,-183,568,16344,-1,-31,-4,3,1,0
10.990054,-177,567,16338,-1,-30,-4,3,2,0
11.000053,-183,562,16345,-3,-30,-4,1,2,0
11.010053,-186,564,16346,-3,-31,-4,1,1,0
11.020053,-194,588,16356,-4,-31,-2,0,1,2
11.030053,-193,578,16354,-2,-31,-3,2,1,1
11.040054,-194,571,16347,-2,-33,-2,2,-1,2
11.050054,-193,580,16347,-3,-32,-3,1,0,1
11.060053,-192,585,16343,-2,-31,-4,2,1,0
11.070055,-196,576,16346,-3,-30,-3,1,2,1
11.080052,-199,575,16342,-3,-30,-3,1,2,1
11.090054,-192,558,16339,-2,-32,-2,2,0,2
11.100053,-190,561,16336,-1,-32,-3,3,0,1
11.110052,-169,572,16337,-3,-33,-3,1,-1,1
11.120053,-187,563,16346,-3,-32,-3,1,0,1
11.130054,-187,552,16357,-4,-32,-2,0,0,2
11.140053,-203,541,16342,-3,-33,-4,1,-1,0
11.150054,-197,552,16335,-3,-33,-4,1,-1,0
11.160053,-191,565,16322,-3,-33,-4,1,-1,0
11.170053,-189,577,16337,-3,-34,-3,1,-2,1
11.180053,-202,573,16344,-2,-34,-3,2,-2,1
11.190054,-196,564,16337,-5,-33,-3,-1,-1,1
11.200054,-199,567,16348,-4,-33,-3,0,-1,1
11.210054,-178,563,16362,-3,-33,-4,1,-1,0
11.220053,-178,565,16371,-3,-32,-4,1,0,0
11.230053,-194,573,16372,-3,-33,-5,1,-1,-1
11.240054,-200,572,16362,-2,-32,-5,2,0,-1
11.250055,-197,569,16365,-3,-32,-5,1,0,-1
11.260054,-195,557,16352,-3,-31,-3,1,1,1
11.270060,-195,562,16351,-2,-32,-3,2,0,1
11.280054,-196,556,16353,-1,-33,-3,3,-1,1
11.290054,-198,559,16349,-2,-34,-3,2,-2,1
11.300053,-200,570,16345,-3,-34,-3,1,-2,1
11.310054,-205,565,16346,-4,-32,-3,0,0,1
11.320053,-200,561,16355,-5,-32,-4,-1,0,0
11.330054,-183,562,16340,-3,-32,-4,1,0,0
11.340054,-192,559,16339,-1,-33,-2,3,-1,2
11.350054,-197,574,16338,-2,-32,-4,2,0,0
11.360053,-196,572,16335,-3,-31,-3,1,1,1
11.370054,-199,569,16343,-4,-31,-2,0,1,2
11.380054,-190,565,16355,-3,-31,-3,1,1,1
11.390053,-183,565,16360,-2,-31,-4,2,1,0
11.400053,-182,573,16341,-3,-30,-4,1,2,0
11.410053,-181,570,16347,-3,-31,-4,1,1,0
11.420053,-187,573,16356,-3,-31,-4,1,1,0
11.430053,-193,579,16359,-4,-31,-3,0,1,1
11.440054,-202,575,16364,-4,-30,-2,0,2,2
11.450053,-184,569,16357,-3,-32,-3,1,0,1
11.460054,-190,578,16354,-2,-33,-3,2,-1,1
11.470053,-194,571,16357,-2,-33,-4,2,-1,0
11.480054,-196,567,16363,-3,-33,-5,1,-1,-1
11.490054,-196,563,16358,-4,-32,-5,0,0,-1
11.500052,-201,567,16336,-5,-31,-5,-1,1,-1
11.510053,-207,564,16334,-4,-30,-4,0,2,0
11.520054,-206,567,16347,-2,-32,-4,2,0,0
11.530053,-191,564,16344,-1,-33,-4,3,-1,0
11.540053,-202,557,16335,-3,-32,-3,1,0,1
11.550053,-197,563,16340,-3,-31,-3,1,1,1
11.560065,-203,564,16330,-3,-31,-4,1,1,0
11.570052,-193,560,16344,-2,-32,-5,2,0,-1
11.580053,-199,557,16343,-2,-33,-5,2,-1,-1
11.590054,-196,568,16345,-3,-32,-4,1,0,0
11.600065,-206,568,16335,-4,-31,-4,0,1,0
11.610053,-204,575,16339,-4,-32,-4,0,0,0
11.620053,-202,569,16351,-4,-32,-4,0,0,0
11.630052,-188,570,16361,-4,-33,-4,0,-1,0
11.640054,-186,578,16353,-4,-32,-4,0,0,0
11.650054,-188,566,16342,-3,-32,-4,1,0,0
11.660053,-193,576,16335,-2,-33,-3,2,-1,1
11.670053,-193,582,16344,0,-32,-2,4,0,2
11.680054,-195,579,16358,-2,-31,-3,2,1,1
11.690053,-185,575,16358,-1,-31,-3,3,1,1
11.700053,-190,576,16362,-1,-31,-4,3,1,0
11.710054,-192,580,16345,-2,-32,-4,2,0,0
11.720053,-194,575,16354,-2,-32,-4,2,0,0
11.730053,-201,580,16345,-4,-30,-4,0,2,0
11.740054,-193,584,16351,-3,-29,-4,1,3,0
11.750053,-192,578,16350,-2,-32,-4,2,0,0
11.760054,-194,570,16345,-1,-32,-3,3,0,1
11.770053,-190,571,16346,-2,-31,-3,2,1,1
11.780053,-190,567,16348,-4,-30,-3,0,2,1
11.790053,-195,570,16348,-5,-31,-2,-1,1,2
11.800053,-192,578,16352,-3,-33,-3,1,-1,1
11.810053,-198,580,16359,-4,-33,-4,0,-1,0
11.820053,-195,578,16370,-3,-32,-4,1,0,0
11.830052,-200,578,16373,-3,-32,-4,1,0,0
11.840055,-203,572,16376,-3,-33,-4,1,-1,0
11.850053,-198,561,16361,-4,-33,-3,0,-1,1
11.860053,-195,557,16355,-4,-33,-3,0,-1,1
11.870053,-179,555,16359,-2,-32,-2,2,0,2
11.880052,-171,553,16356,-1,-33,-2,3,-1,2
11.890053,-184,558,16354,-1,-33,-3,3,-1,1
11.900053,-188,563,16356,-3,-32,-3,1,0,1
11.910053,-188,567,16348,-4,-32,-2,0,0,2
11.920053,-191,568,16356,-5,-31,-2,-1,1,2
11.930053,-187,555,16352,-3,-33,-2,1,-1,2
11.940059,-190,567,16354,-2,-35,-4,2,-3,0
11.950053,-184,575,16335,-2,-34,-4,2,-2,0
11.960052,-188,572,16332,-5,-34,-3,-1,-2,1
11.970053,-193,561,16340,-4,-32,-3,0,0,1
11.980053,-194,565,16336,-4,-33,-3,0,-1,1
11.990052,-190,560,16343,-3,-34,-4,1,-2,0
12.000053,-184,563,16337,-2,-34,-4,2,-2,0
12.010060,-178,556,16333,-1,-33,-5,3,-1,-1
12.020075,-191,556,16340,-1,-33,-5,3,-1,-1
12.030053,-195,553,16345,-2,-33,-5,2,-1,-1
12.040053,-197,563,16346,-2,-33,-3,2,-1,1
12.050054,-193,553,16344,-2,-33,-3,2,-1,1
12.060052,-188,565,16354,-1,-33,-4,3,-1,0
12.070081,-183,570,16353,-1,-32,-4,3,0,0
12.080053,-184,571,16354,-3,-31,-4,1,1,0
12.090053,-184,559,16353,-4,-30,-4,0,2,0
12.100053,-193,566,16348,-4,-29,-3,0,3,1
12.110053,-191,554,16348,-5,-30,-3,-1,2,1
12.120053,-193,556,16360,-3,-32,-2,1,0,2
12.130053,-191,565,16357,-3,-33,0,1,-1,4
12.140053,-203,564,16351,-4,-32,-1,0,0,3
12.150052,-207,562,16349,-4,-30,-2,0,2,2
12.160053,-199,572,16332,-3,-31,-2,1,1,2
12.170053,-199,569,16345,-2,-32,-3,2,0,1
12.180055,-184,563,16352,-3,-34,-2,1,-2,2
12.190053,-187,561,16343,-3,-33,-2,1,-1,2
12.200052,-184,561,16348,-3,-34,-3,1,-2,1
12.210053,-179,575,16348,-3,-34,-3,1,-2,1
12.220052,-175,564,16357,-3,-34,-2,1,-2,2
12.230053,-173,558,16357,-3,-32,-2,1,0,2
12.240053,-168,558,16357,-3,-34,-2,1,-2,2
12.250053,-178,558,16351,-2,-33,-3,2,-1,1
12.260053,-185,565,16343,-3,-33,-4,1,-1,0
12.270053,-189,561,16347,-3,-33,-3,1,-1,1
12.280053,-172,557,16364,-4,-32,-3,0,0,1
12.290053,-183,557,16364,-4,-32,-4,0,0,0
12.300053,-182,554,16357,-3,-33,-5,1,-1,-1
12.310053,-180,546,16338,-3,-33,-4,1,-1,0
12.320052,-190,553,16355,-3,-33,-5,1,-1,-1
12.330052,-191,551,16348,-3,-33,-3,1,-1,1
12.340052,-189,542,16348,-3,-35,-3,1,-3,1
12.350053,-185,547,16347,-3,-35,-3,1,-3,1
12.360052,-176,550,16338,-3,-33,-3,1,-1,1
12.370052,-177,563,16357,-4,-32,-3,0,0,1
12.380067,-176,575,16358,-3,-32,-3,1,0,1
12.390058,-177,570,16340,-4,-33,-3,0,-1,1
12.400069,-186,576,16333,-3,-33,-3,1,-1,1
12.410053,-185,566,16338,-2,-33,-5,2,-1,-1
12.420053,-175,564,16354,-1,-33,-4,3,-1,0
12.430052,-169,565,16355,-1,-33,-5,3,-1,-1
12.440052,-183,564,16354,-3,-33,-5,1,-1,-1
12.450053,-181,571,16350,-4,-32,-4,0,0,0
12.460053,-181,559,16342,-3,-32,-5,1,0,-1
12.470052,-189,565,16341,-3,-32,-3,1,0,1
12.480053,-182,563,16353,-1,-33,-3,3,-1,1
12.490053,-188,571,16363,-2,-32,-4,2,0,0
12.500053,-191,572,16355,-4,-31,-3,0,1,1
12.510053,-188,570,16350,-5,-31,-4,-1,1,0
12.520052,-179,574,16358,-5,-32,-4,-1,0,0
12.530052,-191,573,16361,-3,-32,-3,1,0,1
12.540052,-183,569,16343,-3,-33,-2,1,-1,2
12.550052,-190,557,16336,-2,-33,-2,2,-1,2
12.560055,-188,562,16330,-4,-32,-3,0,0,1
12.570052,-183,572,16337,-5,-32,-2,-1,0,2
12.580052,-172,571,16346,-5,-33,-2,-1,-1,2
12.590052,-177,569,16354,-4,-32,-2,0,0,2
12.600052,-176,575,16354,-2,-33,-2,2,-1,2
12.610053,-179,575,16338,-1,-34,-3,3,-2,1
12.620052,-183,579,16345,0,-33,-3,4,-1,1
12.630051,-168,580,16347,-4,-32,-2,0,0,2
12.640052,-173,581,16349,-5,-31,-3,-1,1,1
12.650052,-189,573,16364,-5,-32,-4,-1,0,0
12.660079,-192,573,16357,-4,-32,-4,0,0,0
12.670053,-188,568,16359,-3,-32,-3,1,0,1
12.680051,-182,572,16356,-3,-32,-2,1,0,2
12.690052,-184,568,16348,-5,-32,-2,-1,0,2
12.700052,-188,578,16337,-6,-32,-3,-2,0,1
12.710053,-182,567,16337,-5,-31,-4,-1,1,0
12.720052,-179,562,16341,-5,-31,-3,-1,1,1
12.730052,-179,558,16348,-4,-31,-2,0,1,2
12.740051,-181,553,16339,-3,-31,-3,1,1,1
12.750052,-189,557,16335,-3,-31,-3,1,1,1
12.760051,-194,558,16334,-3,-31,-2,1,1,2
12.770052,-188,575,16332,-2,-32,-3,2,0,1
12.780052,-191,581,16338,-1,-32,-3,3,0,1
12.790052,-189,569,16335,-3,-31,-2,1,1,2
12.800051,-199,565,16322,-4,-30,-4,0,2,0
12.810052,-197,559,16320,-4,-30,-4,0,2,0
12.820051,-207,551,16343,-4,-31,-3,0,1,1
12.830053,-201,548,16350,-4,-31,-3,0,1,1
12.840051,-202,552,16344,-3,-32,-2,1,0,2
12.850053,-198,548,16341,-2,-32,-3,2,0,1
12.860051,-193,547,16340,-1,-32,-3,3,0,1
12.870051,-188,556,16345,-1,-31,-3,3,1,1
12.880051,-195,560,16344,-2,-31,-3,2,1,1
12.890052,-188,556,16347,-3,-32,-4,1,0,0
12.900051,-186,563,16349,-2,-34,-5,2,-2,-1
12.910052,-177,560,16334,0,-34,-4,4,-2,0
12.920050,-188,554,16341,-1,-33,-4,3,-1,0
12.930052,-192,559,16341,-3,-32,-4,1,0,0
12.940051,-205,557,16339,-4,-31,-5,0,1,-1
12.950052,-193,556,16328,-4,-31,-5,0,1,-1
12.960052,-188,573,16327,-2,-33,-4,2,-1,0
12.970052,-188,566,16335,-2,-34,-4,2,-2,0
12.980051,-183,568,16343,-4,-32,-4,0,0,0
12.990052,-188,563,16337,-4,-31,-4,0,1,0
13.000051,-191,561,16342,-4,-32,-4,0,0,0
13.010052,-195,559,16336,-5,-30,-3,-1,2,1
13.020051,-201,565,16348,-4,-31,-3,0,1,1
13.030051,-197,573,16350,-3,-33,-3,1,-1,1
13.040051,-191,573,16341,-2,-34,-3,2,-2,1
13.050052,-187,572,16339,-3,-33,-3,1,-1,1
13.060051,-179,564,16334,-5,-32,-2,-1,0,2
13.070052,-175,553,16338,-5,-31,-3,-1,1,1
13.080051,-189,554,16353,-3,-31,-4,1,1,0
13.090052,-199,557,16348,-2,-32,-2,2,0,2
13.100051,-194,556,16334,-2,-31,-3,2,1,1
13.110051,-190,561,16330,-2,-31,-3,2,1,1
13.120051,-187,560,16347,-4,-32,-3,0,0,1
13.130052,-195,550,16350,-2,-33,-3,2,-1,1
13.140051,-193,542,16347,-2,-31,-3,2,1,1
13.150052,-186,549,16338,-4,-30,-2,0,2,2
13.160051,-190,547,16330,-5,-31,-3,-1,1,1
13.170052,-190,547,16332,-3,-31,-3,1,1,1
13.180050,-194,555,16339,-2,-33,-3,2,-1,1
13.190052,-193,566,16330,-2,-33,-3,2,-1,1
13.200050,-185,570,16331,-2,-33,-3,2,-1,1
13.210052,-187,554,16337,-3,-32,-3,1,0,1
13.220050,-187,566,16348,-3,-32,-1,1,0,3
13.230051,-197,563,16356,-4,-32,-1,0,0,3
13.240051,-192,573,16355,-4,-32,-2,0,0,2
13.250051,-200,576,16350,-3,-32,-3,1,0,1
13.260050,-198,577,16349,-3,-32,-4,1,0,0
13.270050,-187,605,16349,-3,-32,-3,1,0,1
13.280051,-185,590,16346,-4,-32,-2,0,0,2
13.290051,-190,569,16331,-5,-31,-4,-1,1,0
13.300050,-189,565,16339,-6,-31,-4,-2,1,0
13.310052,-193,573,16333,-3,-32,-4,1,0,0
13.320050,-180,585,16341,-3,-32,-3,1,0,1
13.330052,-181,579,16343,-2,-32,-4,2,0,0
13.340050,-177,569,16332,-2,-30,-4,2,2,0
13.350052,-176,566,16331,-3,-29,-4,1,3,0
13.360050,-187,574,16323,-5,-30,-3,-1,2,1
13.370052,-188,567,16337,-4,-31,-3,0,1,1
13.380052,-187,570,16339,-2,-32,-3,2,0,1
13.390052,-192,558,16323,-2,-33,-3,2,-1,1
13.400051,-179,559,16325,-2,-32,-3,2,0,1
13.410051,-190,562,16331,-3,-33,-4,1,-1,0
13.420052,-189,566,16348,-5,-32,-4,-1,0,0
13.430050,-195,562,16348,-6,-31,-4,-2,1,0
13.440050,-198,565,16344,-5,-32,-4,-1,0,0
13.450051,-197,567,16349,-3,-33,-4,1,-1,0
13.460052,-193,579,16353,-2,-33,-5,2,-1,-1
13.470052,-195,582,16350,-3,-32,-5,1,0,-1
13.480052,-199,583,16353,-3,-31,-4,1,1,0
13.490052,-204,577,16357,-3,-31,-4,1,1,0
13.500052,-207,579,16348,-1,-33,-3,3,-1,1
13.510052,-200,575,16342,-1,-33,-3,3,-1,1
13.520051,-194,585,16339,-1,-33,-3,3,-1,1
13.530052,-196,584,16342,-1,-33,-3,3,-1,1
13.540052,-194,572,16343,-2,-33,-3,2,-1,1
13.550051,-204,573,16346,-4,-32,-2,0,0,2
13.560054,-206,572,16336,-3,-33,-3,1,-1,1
13.570051,-204,560,16338,-2,-32,-3,2,0,1
13.580052,-197,563,16340,-2,-32,-2,2,0,2
13.590051,-192,569,16336,-2,-33,-3,2,-1,1
13.600051,-189,572,16333,-4,-34,-4,0,-2,0
13.610051,-180,575,16341,-3,-33,-4,1,-1,0
13.620051,-177,562,16353,-3,-32,-4,1,0,0
13.630051,-178,573,16355,-3,-33,-3,1,-1,1
13.640050,-182,568,16342,-2,-33,-3,2,-1,1
13.650052,-194,561,16329,-2,-34,-2,2,-2,2
13.660052,-200,555,16331,-2,-34,-2,2,-2,2
13.670051,-187,563,16341,-3,-34,-3,1,-2,1
13.680051,-177,560,16340,-2,-33,-3,2,-1,1
13.690051,-186,561,16343,-3,-32,-4,1,0,0
13.700051,-187,565,16337,-3,-31,-3,1,1,1
13.710051,-192,563,16332,-4,-32,-3,0,0,1
13.720051,-183,555,16348,-2,-33,-5,2,-1,-1
13.730073,-186,553,16352,-2,-33,-5,2,-1,-1
13.740055,-197,554,16340,0,-33,-4,4,-1,0
13.750062,-180,559,16329,0,-33,-4,4,-1,0
13.760054,-172,565,16329,-2,-33,-3,2,-1,1
13.770051,-190,569,16338,-3,-32,-3,1,0,1
13.780051,-187,565,16338,-3,-32,-3,1,0,1
13.790052,-184,557,16339,-3,-31,-3,1,1,1
13.800093,-198,558,16337,-2,-32,-4,2,0,0
13.812377,-201,573,16337,-4,-33,-3,0,-1,1
13.820062,-195,577,16351,-3,-33,-3,1,-1,1
13.830066,-196,569,16363,-3,-31,-3,1,1,1
13.840077,-198,560,16360,-4,-31,-3,0,1,1
13.850065,-194,563,16350,-5,-31,-3,-1,1,1
13.860069,-181,576,16351,-1,-33,-4,3,-1,0
13.870085,-190,575,16352,0,-34,-4,4,-2,0
13.880140,-193,573,16356,-2,-32,-4,2,0,0
13.890070,-196,568,16352,-2,-30,-5,2,2,-1
13.900082,-194,568,16359,-3,-32,-4,1,0,0
13.910053,-193,570,16355,-3,-31,-4,1,1,0
13.920052,-192,552,16352,-2,-32,-4,2,0,0
13.930049,-181,565,16354,-2,-33,-4,2,-1,0
13.940073,-183,565,16350,-2,-33,-4,2,-1,0
13.950072,-184,569,16342,-3,-31,-4,1,1,0
13.960054,-182,575,16335,-4,-31,-4,0,1,0
13.970051,-182,570,16329,-5,-32,-4,-1,0,0
13.980052,-180,577,16317,-4,-31,-2,0,1,2
13.990050,-185,575,16312,-3,-32,-2,1,0,2
14.000052,-179,570,16313,-2,-34,-1,2,-2,3
14.010051,-191,570,16312,-2,-34,-2,2,-2,2
14.020051,-193,570,16321,-4,-33,-3,0,-1,1
14.030051,-192,565,16340,-3,-32,-3,1,0,1
14.040050,-200,556,16341,-3,-32,-4,1,0,0
14.050052,-192,575,16335,-2,-31,-5,2,1,-1
14.060050,-196,577,16337,-2,-31,-5,2,1,-1
14.070051,-181,569,16351,-4,-31,-4,0,1,0
14.080049,-183,563,16352,-3,-31,-4,1,1,0
14.090051,-182,574,16343,-1,-31,-5,3,1,-1
14.100050,-165,562,16340,-1,-32,-3,3,0,1
14.110051,-167,566,16342,-1,-31,-5,3,1,-1
14.120050,-174,559,16352,-2,-32,-3,2,0,1
14.130050,-177,569,16350,0,-32,-3,4,0,1
14.140050,-192,575,16342,-1,-32,-3,3,0,1
14.150050,-188,574,16336,-3,-31,-4,1,1,0
14.160050,-188,571,16330,-2,-31,-4,2,1,0
14.170051,-188,567,16341,-2,-32,-4,2,0,0
14.180049,-188,572,16343,-2,-32,-2,2,0,2
14.190051,-186,562,16339,-2,-31,-3,2,1,1
14.200049,-195,559,16331,-2,-30,-2,2,2,2
14.210052,-196,573,16330,-3,-31,-2,1,1,2
14.220050,-197,577,16350,-2,-31,-2,2,1,2
14.230051,-184,574,16353,0,-31,-3,4,1,1
14.240050,-187,574,16350,-2,-31,-3,2,1,1
14.250051,-192,575,16346,-2,-30,-2,2,2,2
14.260050,-185,568,16351,-3,-30,-3,1,2,1
14.270051,-190,576,16365,-4,-30,-2,0,2,2
14.280051,-191,572,16365,-2,-32,-2,2,0,2
14.290051,-201,563,16366,-2,-32,-3,2,0,1
14.300050,-213,565,16360,-1,-32,-3,3,0,1
14.310050,-217,573,16346,-4,-32,-3,0,0,1
14.320050,-213,575,16347,-4,-32,-3,0,0,1
14.330051,-196,554,16334,-3,-32,-4,1,0,0
14.340050,-190,549,16331,-3,-33,-3,1,-1,1
14.350050,-178,548,16334,-2,-34,-3,2,-2,1
14.360051,-177,541,16325,-2,-33,-4,2,-1,0
14.370051,-183,540,16326,-2,-32,-4,2,0,0
14.380050,-206,552,16325,-3,-32,-3,1,0,1
14.390060,-209,554,16321,-2,-31,-3,2,1,1
14.400055,-215,560,16338,-2,-31,-4,2,1,0
14.410051,-207,552,16340,-2,-32,-4,2,0,0
14.420051,-210,559,16342,-2,-31,-3,2,1,1
14.430050,-205,556,16338,-4,-31,-3,0,1,1
14.440051,-196,554,16333,-4,-30,-3,0,2,1
14.450051,-192,569,16343,-3,-30,-3,1,2,1
14.460051,-186,561,16344,-2,-31,-3,2,1,1
14.470051,-182,565,16344,-1,-33,-3,3,-1,1
14.480051,-183,568,16351,-2,-33,-4,2,-1,0
14.490051,-190,567,16348,-4,-32,-4,0,0,0
14.500051,-186,559,16348,-5,-31,-4,-1,1,0
14.510051,-187,553,16340,-3,-31,-4,1,1,0
14.520050,-185,556,16350,-2,-32,-4,2,0,0
14.530051,-189,559,16353,-3,-32,-4,1,0,0
14.540050,-187,559,16350,-2,-33,-3,2,-1,1
14.550050,-204,568,16337,-2,-33,-2,2,-1,2
14.560055,-202,558,16329,-3,-31,-3,1,1,1
14.570050,-200,563,16334,-2,-30,-3,2,2,1
14.580051,-197,555,16343,-2,-30,-3,2,2,1
14.590051,-198,563,16331,-1,-31,-3,3,1,1
14.600050,-191,575,16325,0,-32,-3,4,0,1
14.610050,-184,579,16332,-1,-32,-2,3,0,2
14.620050,-182,582,16346,-2,-32,-2,2,0,2
14.630050,-183,571,16345,-3,-31,-2,1,1,2
14.640050,-177,570,16347,-4,-31,-1,0,1,3
14.650050,-179,570,16341,-2,-32,-1,2,0,3
14.660050,-186,572,16334,-1,-32,-2,3,0,2
14.670050,-180,569,16343,-1,-32,-3,3,0,1
14.680050,-187,564,16348,-1,-32,-2,3,0,2
14.690050,-201,561,16338,-1,-32,-2,3,0,2
14.700050,-205,559,16329,-2,-32,-2,2,0,2
14.710050,-192,556,16332,-3,-32,-2,1,0,2
14.720050,-195,555,16344,-1,-32,-3,3,0,1
14.730050,-191,551,16346,-2,-31,-4,2,1,0
14.740050,-191,554,16336,-2,-32,-4,2,0,0
14.750051,-184,554,16340,-3,-33,-3,1,-1,1
14.760056,-185,545,16340,-2,-33,-3,2,-1,1
14.770051,-193,548,16347,-2,-33,-3,2,-1,1
14.780051,-189,556,16355,-2,-32,-2,2,0,2
14.790050,-190,555,16354,-3,-32,-1,1,0,3
14.800050,-200,559,16342,-3,-31,-1,1,1,3
14.810051,-204,566,16341,-3,-32,-1,1,0,3
14.820050,-195,568,16351,-2,-34,-1,2,-2,3
14.830050,-201,571,16350,0,-35,-2,4,-3,2
14.840049,-191,570,16340,-1,-35,-2,3,-3,2
14.850050,-183,568,16324,-2,-33,-2,2,-1,2
14.860049,-191,567,16322,-5,-32,-3,-1,0,1
14.870050,-195,559,16326,-4,-32,-3,0,0,1
14.880049,-198,566,16333,-2,-33,-2,2,-1,2
14.890050,-194,561,16328,-1,-33,-2,3,-1,2
14.900050,-180,559,16331,-1,-33,-3,3,-1,1
14.910049,-188,558,16336,-2,-32,-3,2,0,1
14.920049,-201,556,16348,-2,-31,-3,2,1,1
14.930050,-206,548,16349,-4,-31,-2,0,1,2
14.940050,-210,549,16353,-3,-31,-2,1,1,2
14.950050,-204,550,16343,-3,-32,-2,1,0,2
14.960050,-197,549,16340,-2,-34,-2,2,-2,2
14.970049,-187,564,16347,-1,-35,-2,3,-3,2
14.980050,-183,561,16347,-3,-33,-3,1,-1,1
14.990050,-189,559,16346,-5,-31,-3,-1,1,1
15.000057,-194,550,16351,-5,-31,-3,-1,1,1
15.010051,-191,559,16342,-3,-31,-3,1,1,1
15.020050,-181,560,16333,-1,-33,-3,3,-1,1
15.030050,-178,573,16337,-2,-33,-3,2,-1,1
15.040049,-190,562,16328,-4,-31,-3,0,1,1
15.050050,-194,552,16330,-4,-31,-3,0,1,1
15.060050,-191,556,16320,-3,-31,-4,1,1,0
15.070058,-190,545,16331,-2,-32,-4,2,0,0
15.080068,-182,547,16333,-3,-32,-4,1,0,0
15.090051,-190,555,16339,-4,-31,-4,0,1,0
15.100050,-187,557,16336,-4,-32,-4,0,0,0
15.110050,-182,553,16326,-5,-32,-4,-1,0,0
15.120049,-173,553,16340,-5,-32,-3,-1,0,1
15.130050,-169,555,16343,-3,-32,-3,1,0,1
15.140049,-177,567,16334,-3,-33,-3,1,-1,1
15.150052,-174,566,16334,-2,-33,-2,2,-1,2
15.160051,-165,553,16327,-1,-33,-2,3,-1,2
15.170050,-172,558,16334,-2,-33,-2,2,-1,2
15.180050,-173,559,16353,-1,-33,-2,3,-1,2
15.190050,-184,563,16342,-1,-33,-2,3,-1,2
15.200051,-194,568,16342,-1,-32,-3,3,0,1
15.210050,-208,559,16344,-2,-31,-4,2,1,0
15.220050,-209,558,16346,-4,-30,-4,0,2,0
15.230050,-200,561,16348,-2,-31,-3,2,1,1
15.240049,-205,571,16349,0,-32,-3,4,0,1
15.250050,-199,572,16343,0,-33,-3,4,-1,1
15.260050,-184,577,16336,0,-32,-3,4,0,1
15.270050,-188,579,16345,-2,-32,-3,2,0,1
15.280050,-189,578,16358,-4,-30,-4,0,2,0
15.290049,-186,574,16358,-3,-29,-4,1,3,0
15.300050,-178,562,16352,-2,-30,-3,2,2,1
15.310050,-187,564,16346,0,-31,-2,4,1,2
15.320050,-183,567,16349,0,-33,-3,4,-1,1
15.330050,-181,580,16353,0,-32,-3,4,0,1
15.340050,-177,573,16353,-1,-31,-4,3,1,0
15.350050,-193,555,16337,-3,-29,-4,1,3,0
15.360050,-183,560,16343,-3,-31,-5,1,1,-1
15.370050,-189,555,16361,-2,-32,-2,2,0,2
15.380050,-178,561,16365,-1,-32,-2,3,0,2
15.390050,-190,575,16355,-2,-32,-3,2,0,1
15.400050,-188,579,16347,-3,-32,-3,1,0,1
15.410050,-184,579,16350,-4,-31,-3,0,1,1
15.420049,-189,575,16346,-4,-32,-3,0,0,1
15.430049,-180,574,16346,-4,-32,-2,0,0,2
15.440048,-185,565,16339,-4,-31,-2,0,1,2
15.450050,-181,559,16337,-2,-32,-1,2,0,3
15.460050,-173,558,16336,-2,-31,-1,2,1,3
15.470049,-171,564,16347,-3,-31,-2,1,1,2
15.480050,-171,567,16353,-5,-31,-3,-1,1,1
15.490050,-177,545,16352,-5,-32,-3,-1,0,1
15.500050,-177,542,16358,-4,-32,-2,0,0,2
15.510051,-189,545,16355,-3,-33,-2,1,-1,2
15.520050,-181,551,16363,-3,-33,-3,1,-1,1
15.530049,-179,551,16370,-3,-33,-3,1,-1,1
15.540050,-173,559,16370,-2,-33,-2,2,-1,2
15.550050,-171,575,16366,0,-32,-2,4,0,2
15.560053,-184,563,16356,-1,-32,-3,3,0,1
15.570049,-170,570,16369,-2,-32,-3,2,0,1
15.580050,-175,576,16372,-2,-32,-2,2,0,2
15.590049,-177,581,16359,-1,-32,-2,3,0,2
15.600049,-180,591,16358,-1,-32,-2,3,0,2
15.610050,-163,585,16361,-2,-34,-2,2,-2,2
15.620049,-164,571,16355,-1,-33,-2,3,-1,2
15.630049,-170,575,16353,-4,-32,-2,0,0,2
15.640048,-171,572,16352,-4,-32,-2,0,0,2
15.650050,-181,573,16362,-2,-32,-2,2,0,2
15.660050,-187,583,16352,-2,-32,-3,2,0,1
15.670063,-180,577,16364,-2,-33,-2,2,-1,2
15.680062,-168,577,16358,-3,-33,-1,1,-1,3
15.690050,-167,571,16350,-3,-32,-2,1,0,2
15.700050,-175,562,16340,-4,-32,-3,0,0,1
15.710050,-167,566,16338,-4,-32,-2,0,0,2
15.720049,-184,575,16342,-2,-32,-3,2,0,1
15.730049,-180,568,16349,-2,-32,-3,2,0,1
15.740050,-178,571,16347,-2,-33,-3,2,-1,1
15.750050,-176,568,16354,-3,-32,-2,1,0,2
15.760049,-177,565,16349,-5,-31,-2,-1,1,2
15.770049,-186,560,16350,-5,-31,-1,-1,1,3
15.780050,-186,560,16344,-4,-32,-1,0,0,3
15.790050,-187,567,16351,-2,-32,-1,2,0,3
15.800050,-180,570,16355,0,-33,-2,4,-1,2
15.810050,-185,564,16351,-1,-33,-2,3,-1,2
15.820050,-189,567,16355,-5,-31,-4,-1,1,0
15.830048,-193,568,16351,-4,-31,-3,0,1,1
15.840048,-197,548,16346,-4,-33,-3,0,-1,1
15.850127,-191,557,16329,-3,-32,-2,1,0,2
15.860077,-189,565,16326,-1,-31,-2,3,1,2
15.870077,-186,572,16338,-3,-32,-3,1,0,1
15.880077,-189,568,16341,-3,-31,-2,1,1,2
15.890077,-189,562,16329,-3,-30,-3,1,2,1
15.900076,-187,559,16326,-2,-30,-2,2,2,2
15.910077,-188,557,16338,-1,-32,-3,3,0,1
15.920076,-179,564,16346,-2,-33,-2,2,-1,2
15.930077,-186,563,16356,-1,-33,-2,3,-1,2
15.940076,-187,574,16349,-3,-33,-4,1,-1,0
15.950103,-185,570,16345,-4,-32,-3,0,0,1
15.960073,-189,566,16337,-4,-32,-4,0,0,0
15.970077,-193,564,16341,-2,-32,-4,2,0,0
15.980076,-192,565,16341,-3,-32,-3,1,0,1
15.990077,-191,573,16347,-3,-32,-3,1,0,1
16.000076,-194,569,16343,-3,-32,-2,1,0,2
16.010076,-202,559,16329,-4,-31,-4,0,1,0
16.020076,-197,558,16341,-3,-31,-4,1,1,0
16.030072,-189,564,16342,-2,-32,-3,2,0,1
16.040073,-189,569,16343,-2,-33,-3,2,-1,1
16.050076,-191,572,16338,-2,-33,-3,2,-1,1
16.060076,-208,556,16332,-2,-32,-3,2,0,1
16.070076,-210,559,16333,-2,-32,-2,2,0,2
16.080076,-201,561,16340,-3,-32,-2,1,0,2
16.090076,-205,568,16342,-4,-32,-2,0,0,2
16.100077,-194,559,16352,-2,-32,-4,2,0,0
16.110075,-198,564,16348,-1,-34,-3,3,-2,1
16.120076,-194,550,16343,-3,-33,-3,1,-1,1
16.130077,-195,552,16338,-4,-32,-3,0,0,1
16.140076,-186,560,16340,-4,-32,-2,0,0,2
16.150076,-185,557,16347,-3,-32,-4,1,0,0
16.160076,-185,555,16341,-2,-33,-5,2,-1,-1
16.170076,-190,562,16341,-2,-32,-5,2,0,-1
16.180076,-194,566,16356,-2,-32,-4,2,0,0
16.190075,-202,561,16349,-2,-32,-4,2,0,0
16.200076,-178,566,16346,-1,-31,-4,3,1,0
16.210076,-179,560,16349,-1,-31,-3,3,1,1
16.220076,-189,567,16363,-2,-31,-3,2,1,1
16.230073,-193,562,16369,-2,-31,-3,2,1,1
16.240073,-193,568,16368,-3,-32,-3,1,0,1
16.250076,-185,552,16367,-3,-33,-2,1,-1,2
16.260077,-181,560,16353,-3,-32,-3,1,0,1
16.270568,-186,564,16343,-2,-32,-2,2,0,2
16.280079,-177,570,16347,-2,-34,-2,2,-2,2
16.290072,-181,561,16360,-4,-32,-1,0,0,3
16.300078,-185,553,16365,-5,-31,-3,-1,1,1
16.310078,-191,540,16357,-4,-31,-3,0,1,1
16.320085,-185,547,16359,-2,-32,-4,2,0,0
16.330200,-180,545,16363,-2,-33,-4,2,-1,0
16.340071,-174,540,16365,-1,-33,-4,3,-1,0
16.350078,-178,555,16360,-2,-33,-3,2,-1,1
16.360235,-193,565,16348,-5,-31,-4,-1,1,0
16.370069,-192,558,16358,-5,-31,-5,-1,1,-1
16.380071,-190,553,16355,-4,-32,-4,0,0,0
16.390070,-183,559,16358,-3,-31,-3,1,1,1
16.400096,-181,559,16352,-2,-32,-4,2,0,0
16.410080,-182,561,16342,-1,-31,-3,3,1,1
16.420071,-178,562,16350,-1,-31,-2,3,1,2
16.430074,-185,563,16360,-2,-30,-2,2,2,2
16.440068,-190,560,16349,-3,-30,-2,1,2,2
16.450071,-195,555,16345,-4,-31,-3,0,1,1
16.460068,-192,558,16340,-1,-33,-2,3,-1,2
16.470078,-198,557,16349,-2,-34,-2,2,-2,2
16.480076,-196,550,16362,-4,-32,-4,0,0,0
16.490077,-204,552,16359,-5,-31,-3,-1,1,1
16.500077,-193,561,16356,-3,-31,-3,1,1,1
16.510077,-201,559,16360,-3,-32,-3,1,0,1
16.520073,-193,558,16360,-3,-33,-3,1,-1,1
16.530077,-192,567,16350,-3,-32,-4,1,0,0
16.540073,-196,566,16344,-4,-31,-4,0,1,0
16.550076,-196,552,16345,-4,-31,-2,0,1,2
16.560096,-191,557,16336,-4,-31,-2,0,1,2
16.570074,-187,565,16334,-3,-31,-3,1,1,1
16.580069,-189,564,16340,-2,-31,-2,2,1,2
16.590071,-185,566,16331,-2,-31,-3,2,1,1
16.600067,-187,571,16332,-1,-33,-3,3,-1,1
16.610071,-181,576,16327,-1,-33,-3,3,-1,1
16.620070,-189,578,16330,-4,-32,-5,0,0,-1
16.630072,-183,567,16332,-5,-30,-4,-1,2,0
16.640068,-187,560,16330,-4,-30,-2,0,2,2
16.650072,-176,557,16340,-3,-31,-3,1,1,1
16.660070,-181,558,16345,-2,-31,-4,2,1,0
16.670077,-184,553,16350,-3,-31,-4,1,1,0
16.680076,-191,560,16351,-5,-31,-4,-1,1,0
16.690076,-196,566,16347,-3,-33,-3,1,-1,1
16.700075,-186,574,16346,-2,-33,-3,2,-1,1
16.710077,-187,569,16354,-4,-33,-3,0,-1,1
16.720076,-201,563,16361,-6,-31,-3,-2,1,1
16.730079,-197,561,16361,-4,-31,-2,0,1,2
16.740074,-183,571,16344,-3,-32,-3,1,0,1
16.750077,-181,571,16341,-3,-32,-3,1,0,1
16.760073,-190,579,16342,-3,-32,-3,1,0,1
16.770072,-189,562,16357,-4,-32,-2,0,0,2
16.780067,-190,569,16368,-5,-32,-2,-1,0,2
16.790070,-188,565,16350,-6,-32,-2,-2,0,2
16.800067,-185,557,16348,-5,-32,-2,-1,0,2
16.810070,-193,559,16350,-3,-33,-3,1,-1,1
16.820067,-185,557,16354,-2,-34,-4,2,-2,0
16.830102,-178,562,16356,-2,-33,-2,2,-1,2
16.840107,-177,569,16356,-3,-32,-1,1,0,3
16.850097,-175,574,16358,-2,-32,-1,2,0,3
16.860100,-179,568,16343,-2,-31,-2,2,1,2
16.870067,-180,572,16351,-1,-32,-2,3,0,2
16.880098,-186,570,16354,0,-33,-1,4,-1,3
16.890094,-185,578,16356,0,-33,-2,4,-1,2
16.900076,-191,579,16345,-1,-32,-2,3,0,2
16.910072,-189,589,16331,-3,-31,-3,1,1,1
16.920069,-196,588,16337,-5,-31,-3,-1,1,1
16.930075,-190,571,16344,-3,-33,-4,1,-1,0
16.940088,-182,567,16352,-3,-34,-4,1,-2,0
16.950083,-178,569,16342,-2,-34,-3,2,-2,1
16.960078,-180,557,16329,-3,-33,-3,1,-1,1
16.970064,-184,570,16332,-4,-33,-3,0,-1,1
16.980102,-175,580,16345,-3,-34,-3,1,-2,1
16.990101,-171,582,16345,-2,-33,-3,2,-1,1
17.000085,-174,587,16337,-1,-33,-2,3,-1,2
17.010081,-179,581,16327,-3,-32,-2,1,0,2
17.020074,-185,576,16336,-2,-32,-1,2,0,3
17.030052,-180,576,16349,-2,-32,-4,2,0,0
17.040046,-169,586,16337,-3,-31,-5,1,1,-1
17.050045,-174,583,16321,-3,-31,-5,1,1,-1
17.060046,-184,579,16314,-3,-32,-4,1,0,0
17.070048,-189,572,16319,-3,-32,-4,1,0,0
17.080049,-185,569,16324,-3,-32,-4,1,0,0
17.090048,-187,574,16328,-4,-32,-4,0,0,0
17.100048,-180,574,16316,-4,-31,-4,0,1,0
17.110048,-179,580,16316,-4,-32,-3,0,0,1
17.120048,-184,572,16323,-2,-33,-3,2,-1,1
17.130048,-183,569,16332,-3,-32,-4,1,0,0
17.140048,-182,576,16334,-3,-31,-3,1,1,1
17.150048,-187,587,16333,-4,-32,-4,0,0,0
17.160048,-183,589,16326,-4,-34,-5,0,-2,-1
17.170048,-180,579,16337,-2,-34,-3,2,-2,1
17.180057,-185,564,16342,-1,-34,-4,3,-2,0
17.190049,-187,568,16344,-3,-32,-3,1,0,1
17.200048,-187,572,16337,-3,-32,-4,1,0,0
17.210048,-189,570,16333,-4,-31,-3,0,1,1
17.220048,-186,579,16329,-3,-30,-3,1,2,1
17.230049,-188,583,16339,-2,-31,-3,2,1,1
17.240047,-179,580,16331,0,-32,-3,4,0,1
17.250048,-181,583,16328,-1,-32,-3,3,0,1
17.260048,-182,587,16327,-2,-32,-3,2,0,1
17.270048,-187,577,16347,-2,-31,-3,2,1,1
17.280079,-186,571,16345,-3,-31,-3,1,1,1
17.290049,-198,578,16345,-2,-32,-2,2,0,2
17.300048,-191,580,16354,-2,-33,-2,2,-1,2
17.310048,-176,579,16339,-1,-33,-3,3,-1,1
17.320067,-183,582,16338,-2,-33,-3,2,-1,1
17.330047,-186,583,16344,-3,-32,-3,1,0,1
17.340048,-198,575,16344,-3,-31,-3,1,1,1
17.350048,-203,574,16347,-2,-30,-3,2,2,1
17.360048,-201,567,16342,-1,-32,-3,3,0,1
17.370048,-194,566,16345,-1,-33,-3,3,-1,1
17.380048,-186,565,16351,-2,-32,-3,2,0,1
17.390048,-192,568,16346,-3,-32,-4,1,0,0
17.400048,-185,573,16340,-3,-31,-3,1,1,1
17.410048,-184,567,16326,-4,-31,-3,0,1,1
17.420048,-184,555,16325,-3,-33,-3,1,-1,1
17.430047,-164,560,16349,-2,-33,-2,2,-1,2
17.440048,-166,545,16351,-3,-32,-3,1,0,1
17.450048,-164,544,16350,-3,-33,-3,1,-1,1
17.460048,-162,548,16342,-3,-32,-4,1,0,0
17.470048,-168,559,16344,-3,-33,-4,1,-1,0
17.480047,-172,584,16346,-2,-33,-3,2,-1,1
17.490047,-175,579,16354,-4,-32,-3,0,0,1
17.500048,-181,569,16345,-4,-31,-2,0,1,2
17.510048,-183,564,16334,-4,-31,-2,0,1,2
17.520047,-182,569,16334,-2,-32,-2,2,0,2
17.530047,-188,571,16347,-1,-33,-2,3,-1,2
17.540047,-184,577,16339,-1,-33,-4,3,-1,0
17.550047,-182,581,16347,-2,-33,-3,2,-1,1
17.560048,-188,585,16350,-2,-32,-4,2,0,0
17.570047,-191,582,16357,-3,-32,-4,1,0,0
17.580046,-187,575,16357,-3,-32,-4,1,0,0
17.590047,-188,567,16353,-3,-34,-4,1,-2,0
17.600048,-186,572,16338,-3,-34,-4,1,-2,0
17.610048,-181,573,16335,-4,-33,-4,0,-1,0
17.620048,-179,565,16344,-5,-32,-3,-1,0,1
17.630048,-181,571,16346,-5,-31,-2,-1,1,2
17.640047,-199,577,16344,-4,-31,-3,0,1,1
17.650048,-187,573,16338,-3,-33,-3,1,-1,1
17.660048,-180,583,16337,-3,-33,-3,1,-1,1
17.670048,-171,584,16351,-3,-33,-2,1,-1,2
17.680047,-179,586,16350,-2,-33,-1,2,-1,3
17.690048,-167,574,16340,-3,-30,-1,1,2,3
17.700047,-168,575,16344,-3,-32,-2,1,0,2
17.710048,-162,576,16340,-2,-33,-3,2,-1,1
17.720048,-162,576,16343,-2,-33,-3,2,-1,1
17.730047,-172,560,16345,-3,-33,-4,1,-1,0
17.740047,-183,564,16350,-3,-33,-4,1,-1,0
17.750047,-178,562,16356,-2,-33,-4,2,-1,0
17.760047,-181,553,16356,-5,-32,-3,-1,0,1
17.770047,-176,557,16352,-4,-33,-4,0,-1,0
17.780047,-168,563,16358,-2,-33,-3,2,-1,1
17.790047,-181,568,16348,-3,-34,-4,1,-2,0
17.800047,-172,571,16350,-3,-34,-4,1,-2,0
17.810047,-181,571,16335,-3,-32,-3,1,0,1
17.820047,-177,574,16334,-4,-33,-3,0,-1,1
17.830046,-183,573,16353,-4,-32,-3,0,0,1
17.840046,-187,570,16346,-4,-34,-3,0,-2,1
17.850047,-187,574,16351,-3,-33,-4,1,-1,0
17.860048,-189,575,16349,-3,-33,-3,1,-1,1
17.870047,-191,574,16356,-4,-32,-4,0,0,0
17.880046,-192,560,16363,-3,-33,-3,1,-1,1
17.890047,-181,570,16360,-1,-33,-3,3,-1,1
17.900047,-179,586,16357,-3,-34,-2,1,-2,2
17.910048,-174,579,16359,-3,-33,-3,1,-1,1
17.920047,-181,584,16360,-4,-33,-5,0,-1,-1
17.930047,-191,574,16353,-4,-33,-5,0,-1,-1
17.940048,-198,566,16361,-3,-32,-4,1,0,0
17.950047,-197,577,16366,-4,-33,-5,0,-1,-1
17.960047,-196,581,16364,-4,-33,-5,0,-1,-1
17.970048,-186,574,16360,-3,-32,-5,1,0,-1
17.980047,-181,589,16362,-2,-32,-5,2,0,-1
17.990047,-180,580,16360,-3,-31,-4,1,1,0
18.000047,-198,585,16355,-4,-30,-4,0,2,0
18.010048,-197,583,16360,-2,-30,-4,2,2,0
18.020047,-182,576,16359,-1,-31,-3,3,1,1
18.030046,-189,579,16353,-1,-32,-2,3,0,2
18.040046,-187,579,16348,-4,-31,-3,0,1,1
18.050047,-175,569,16348,-5,-31,-4,-1,1,0
18.060047,-176,568,16347,-5,-31,-4,-1,1,0
18.070048,-192,568,16367,-4,-32,-4,0,0,0
18.080046,-196,575,16373,-2,-33,-3,2,-1,1
18.090047,-185,569,16355,-1,-33,-3,3,-1,1
18.100047,-191,571,16355,0,-33,-3,4,-1,1
18.110047,-189,572,16346,-1,-32,-3,3,0,1
18.120047,-199,580,16355,-2,-32,-3,2,0,1
18.130048,-185,570,16357,-2,-32,-4,2,0,0
18.140046,-182,569,16361,-3,-32,-4,1,0,0
18.150048,-180,567,16362,-2,-33,-3,2,-1,1
18.160047,-177,572,16345,-3,-33,-2,1,-1,2
18.170047,-177,565,16350,-4,-33,-2,0,-1,2
18.180047,-173,557,16353,-4,-32,-3,0,0,1
18.190047,-181,560,16351,-4,-32,-2,0,0,2
18.200047,-179,568,16342,-2,-32,-3,2,0,1
18.210048,-179,570,16337,-2,-33,-3,2,-1,1
18.220047,-176,570,16350,-3,-32,-4,1,0,0
18.230046,-185,568,16359,-4,-31,-5,0,1,-1
18.240046,-184,572,16357,-4,-31,-4,0,1,0
18.250047,-183,577,16363,-3,-32,-3,1,0,1
18.260046,-182,582,16351,-2,-32,-3,2,0,1
18.270046,-178,581,16354,-3,-32,-4,1,0,0
18.280047,-191,568,16351,-4,-30,-4,0,2,0
18.290047,-186,562,16354,-4,-29,-4,0,3,0
18.300047,-183,563,16352,-3,-31,-3,1,1,1
18.310047,-183,563,16336,-3,-31,-4,1,1,0
18.320047,-184,568,16339,-2,-32,-4,2,0,0
18.330047,-181,562,16349,-3,-31,-6,1,1,-2
18.340046,-192,566,16342,-4,-31,-6,0,1,-2
18.350047,-189,565,16338,-4,-30,-5,0,2,-1
18.360048,-196,560,16339,-4,-30,-4,0,2,0
18.370047,-194,555,16341,-3,-31,-3,1,1,1
18.380045,-200,552,16344,-1,-32,-3,3,0,1
18.390046,-203,566,16348,-1,-32,-3,3,0,1
18.400045,-206,568,16340,-2,-31,-4,2,1,0
18.410058,-202,565,16351,-4,-31,-4,0,1,0
18.420048,-197,558,16357,-5,-30,-4,-1,2,0
18.430048,-194,558,16358,-4,-31,-4,0,1,0
18.440080,-190,560,16353,-3,-33,-3,1,-1,1
18.450047,-181,558,16348,-2,-33,-2,2,-1,2
18.460046,-178,562,16347,-2,-33,-2,2,-1,2
18.470047,-185,572,16332,-3,-32,-3,1,0,1
18.480046,-187,565,16339,-3,-32,-3,1,0,1
18.490047,-186,570,16350,-3,-32,-3,1,0,1
18.500045,-185,571,16354,-2,-33,-3,2,-1,1
18.510047,-186,560,16343,-3,-32,-2,1,0,2
18.520046,-186,563,16354,-3,-32,-2,1,0,2
18.530047,-185,567,16360,-4,-32,-2,0,0,2
18.540045,-181,579,16347,-3,-32,-3,1,0,1
18.550046,-194,573,16337,-2,-31,-4,2,1,0
18.560046,-184,571,16336,-3,-32,-3,1,0,1
18.570048,-184,570,16347,-3,-32,-2,1,0,2
18.580045,-193,570,16341,-3,-31,-3,1,1,1
18.590047,-194,569,16347,-2,-31,-4,2,1,0
18.600046,-187,564,16351,-2,-32,-4,2,0,0
18.610047,-194,570,16356,-2,-32,-5,2,0,-1
18.620045,-193,565,16355,-2,-31,-5,2,1,-1
18.630046,-192,563,16351,-3,-32,-5,1,0,-1
18.640057,-185,556,16352,-4,-31,-5,0,1,-1
18.650048,-195,565,16347,-6,-32,-5,-2,0,-1
18.660045,-196,567,16332,-5,-32,-5,-1,0,-1
18.670044,-197,561,16346,-4,-33,-5,0,-1,-1
18.680046,-191,565,16338,-1,-33,-4,3,-1,0
18.690067,-196,565,16345,-2,-34,-4,2,-2,0
18.700047,-190,572,16336,-3,-33,-3,1,-1,1
18.710047,-194,560,16327,-4,-32,-3,0,0,1
18.720045,-199,557,16326,-3,-31,-2,1,1,2
18.730066,-191,570,16350,-1,-33,-4,3,-1,0
18.740047,-191,564,16345,-1,-33,-4,3,-1,0
18.750065,-186,551,16337,-2,-32,-3,2,0,1
18.760046,-187,556,16338,-3,-32,-3,1,0,1
18.770046,-192,550,16345,-5,-31,-3,-1,1,1
18.780045,-198,561,16342,-4,-31,-4,0,1,0
18.790048,-199,557,16341,-4,-32,-3,0,0,1
18.800045,-194,570,16344,-2,-32,-4,2,0,0
18.810046,-196,573,16336,-2,-33,-4,2,-1,0
18.820045,-203,571,16342,-3,-32,-4,1,0,0
18.830046,-202,560,16340,-3,-32,-4,1,0,0
18.840046,-197,560,16341,-4,-32,-4,0,0,0
18.850047,-198,558,16338,-4,-31,-4,0,1,0
18.860046,-196,551,16340,-2,-32,-4,2,0,0
18.870050,-180,568,16347,-2,-33,-4,2,-1,0
18.880046,-180,571,16348,-2,-34,-4,2,-2,0
18.890046,-179,567,16347,-5,-31,-3,-1,1,1
18.900045,-184,553,16351,-4,-31,-3,0,1,1
18.910046,-190,556,16338,-3,-31,-3,1,1,1
18.920045,-175,557,16345,-1,-33,-4,3,-1,0
18.930046,-173,558,16352,-1,-34,-4,3,-2,0
18.940060,-178,560,16339,-2,-33,-3,2,-1,1
18.950064,-188,566,16337,-3,-32,-3,1,0,1
18.960047,-188,570,16332,-2,-33,-3,2,-1,1
18.970047,-189,568,16332,-3,-33,-3,1,-1,1
18.980045,-175,578,16341,-3,-32,-5,1,0,-1
18.990046,-178,571,16339,-2,-32,-5,2,0,-1
19.000046,-177,575,16334,-3,-33,-4,1,-1,0
19.010046,-189,572,16336,-3,-33,-5,1,-1,-1
19.020045,-183,568,16350,-4,-33,-4,0,-1,0
19.030047,-181,567,16362,-3,-33,-4,1,-1,0
19.040046,-177,563,16347,-2,-34,-5,2,-2,-1
19.050045,-179,567,16339,-2,-34,-4,2,-2,0
19.060054,-171,563,16329,-3,-32,-4,1,0,0
19.070047,-189,557,16333,-5,-33,-4,-1,-1,0
19.080045,-197,551,16342,-5,-31,-3,-1,1,1
19.090046,-199,545,16331,-4,-32,-2,0,0,2
19.100056,-188,542,16335,-4,-32,-3,0,0,1
19.110047,-190,549,16342,-3,-33,-4,1,-1,0
19.120045,-196,549,16339,-3,-33,-4,1,-1,0
19.130047,-207,553,16342,-4,-30,-4,0,2,0
19.140045,-210,542,16343,-4,-30,-3,0,2,1
19.150047,-194,548,16348,-2,-31,-3,2,1,1
19.160046,-182,568,16342,-1,-32,-3,3,0,1
19.170045,-181,573,16335,-1,-33,-3,3,-1,1
19.180044,-181,574,16354,-3,-32,-3,1,0,1
19.190046,-188,582,16356,-4,-31,-3,0,1,1
19.200045,-190,572,16347,-3,-32,-4,1,0,0
19.210050,-195,574,16344,-3,-32,-4,1,0,0
19.220046,-188,572,16341,-3,-33,-4,1,-1,0
19.230046,-176,569,16353,-2,-33,-5,2,-1,-1
19.240045,-184,571,16348,-3,-33,-4,1,-1,0
19.250045,-192,574,16349,-4,-32,-4,0,0,0
19.260045,-189,581,16350,-4,-31,-3,0,1,1
19.270046,-176,572,16344,-5,-31,-4,-1,1,0
19.280045,-177,564,16350,-4,-30,-4,0,2,0
19.290046,-187,562,16344,-2,-32,-3,2,0,1
19.300045,-189,558,16341,-2,-33,-4,2,-1,0
19.310045,-187,564,16345,-1,-33,-3,3,-1,1
19.320045,-184,559,16362,-3,-32,-3,1,0,1
19.330046,-180,554,16364,-2,-32,-2,2,0,2
19.340045,-182,558,16363,-1,-33,-3,3,-1,1
19.350045,-184,572,16342,-1,-32,-4,3,0,0
19.360045,-184,569,16348,-2,-32,-4,2,0,0
19.370046,-184,561,16345,-2,-32,-6,2,0,-2
19.380045,-189,562,16347,-3,-32,-5,1,0,-1
19.390046,-178,563,16352,-1,-34,-2,3,-2,2
19.400044,-182,571,16343,-2,-34,-3,2,-2,1
19.410046,-191,576,16338,-2,-33,-3,2,-1,1
19.420044,-181,577,16337,-3,-33,-4,1,-1,0
19.430044,-183,577,16346,-3,-32,-4,1,0,0
19.440045,-182,575,16338,-3,-32,-3,1,0,1
19.450046,-175,576,16341,-3,-33,-3,1,-1,1
19.460044,-177,577,16345,-3,-33,-4,1,-1,0
19.470046,-180,583,16346,-4,-33,-3,0,-1,1
19.480045,-181,589,16355,-4,-32,-4,0,0,0
19.490046,-184,583,16349,-5,-33,-4,-1,-1,0
19.500045,-176,582,16345,-4,-32,-4,0,0,0
19.510045,-174,594,16337,-4,-32,-4,0,0,0
19.520045,-172,591,16343,-3,-32,-4,1,0,0
19.530045,-166,599,16364,-2,-33,-4,2,-1,0
19.540044,-178,591,16357,-3,-32,-3,1,0,1
19.550045,-183,579,16359,-3,-33,-3,1,-1,1
19.560045,-190,579,16347,-4,-30,-3,0,2,1
19.570046,-197,580,16348,-4,-30,-4,0,2,0
19.580044,-185,571,16360,-3,-32,-3,1,0,1
19.590045,-179,577,16362,-3,-33,-3,1,-1,1
19.600045,-181,588,16349,-3,-33,-4,1,-1,0
19.610045,-181,579,16356,-3,-32,-3,1,0,1
19.620045,-186,585,16357,-4,-30,-4,0,2,0
19.630045,-180,575,16368,-4,-31,-5,0,1,-1
19.640045,-185,565,16358,-5,-32,-4,-1,0,0
19.650046,-187,560,16354,-3,-32,-3,1,0,1
19.660044,-194,557,16349,-3,-32,-3,1,0,1
19.670045,-196,563,16344,-4,-31,-3,0,1,1
19.680045,-195,570,16350,-4,-31,-3,0,1,1
19.690046,-191,566,16342,-4,-32,-4,0,0,0
19.700044,-194,568,16341,-4,-32,-3,0,0,1
19.710045,-202,579,16347,-5,-33,-3,-1,-1,1
19.720044,-196,589,16345,-4,-33,-3,0,-1,1
19.730046,-181,587,16353,-5,-33,-2,-1,-1,2
19.740044,-178,578,16351,-4,-32,-2,0,0,2
19.750046,-175,565,16341,-4,-33,-2,0,-1,2
19.760058,-170,563,16342,-3,-33,-3,1,-1,1
19.770046,-177,559,16349,-1,-32,-4,3,0,0
19.780044,-180,562,16352,-2,-32,-4,2,0,0
19.790046,-185,565,16342,-4,-31,-4,0,1,0
19.800045,-185,575,16333,-4,-31,-4,0,1,0
19.810045,-183,581,16338,-5,-32,-4,-1,0,0
19.820045,-185,579,16343,-3,-33,-5,1,-1,-1
19.830044,-179,574,16350,-3,-33,-4,1,-1,0
19.840045,-174,576,16345,-4,-31,-4,0,1,0
19.850046,-168,579,16335,-4,-31,-5,0,1,-1
19.860045,-168,573,16327,-5,-31,-3,-1,1,1
19.870047,-182,562,16325,-5,-32,-3,-1,0,1
19.880046,-175,574,16338,-4,-31,-4,0,1,0
19.890045,-174,569,16347,-2,-32,-3,2,0,1
19.900045,-175,560,16342,-2,-32,-2,2,0,2
19.910045,-174,559,16330,-3,-32,-2,1,0,2
19.920045,-170,555,16337,-4,-31,-2,0,1,2
19.930046,-182,549,16348,-3,-31,-4,1,1,0
19.940074,-181,561,16343,-2,-33,-3,2,-1,1
19.950090,-181,566,16347,-2,-34,-3,2,-2,1
19.960085,-179,562,16351,-3,-34,-4,1,-2,0
19.970062,-177,559,16355,-4,-32,-4,0,0,0
19.980060,-180,562,16353,-3,-31,-3,1,1,1
19.990062,-189,578,16350,-2,-31,-3,2,1,1
20.000064,-191,573,16350,-3,-32,-2,1,0,2
20.010059,-172,575,16351,-3,-32,-2,1,0,2
20.020125,-170,576,16343,-2,-32,-2,2,0,2
20.030098,-178,580,16356,-3,-31,-3,1,1,1
20.040070,-182,587,16352,-3,-31,-3,1,1,1
20.050085,-171,582,16333,-5,-31,-3,-1,1,1
20.060045,-166,588,16324,-4,-31,-3,0,1,1
20.070062,-174,585,16326,-3,-31,-3,1,1,1
20.080063,-173,583,16346,-2,-32,-2,2,0,2
20.090047,-168,597,16340,-2,-33,-2,2,-1,2
20.100045,-160,596,16343,-4,-31,-3,0,1,1
20.110045,-160,589,16361,-5,-31,-4,-1,1,0
20.120044,-174,586,16354,-3,-32,-4,1,0,0
20.130046,-172,587,16357,-2,-32,-5,2,0,-1
20.140046,-171,589,16357,-3,-32,-4,1,0,0
20.150045,-175,581,16346,-5,-31,-3,-1,1,1
20.160045,-191,574,16348,-4,-31,-3,0,1,1
20.170045,-188,570,16345,-3,-31,-3,1,1,1
20.180045,-186,571,16351,-3,-32,-3,1,0,1
20.190046,-189,582,16346,-2,-32,-3,2,0,1
20.200045,-187,570,16335,-1,-32,-3,3,0,1
20.210046,-187,553,16325,-2,-32,-3,2,0,1
20.220045,-186,562,16333,-3,-32,-5,1,0,-1
20.230045,-185,560,16342,-2,-32,-5,2,0,-1
20.240044,-183,559,16343,-1,-32,-3,3,0,1
20.250046,-179,571,16343,-2,-32,-4,2,0,0
20.260045,-178,575,16349,-3,-33,-4,1,-1,0
20.270045,-183,568,16347,-3,-32,-2,1,0,2
20.280045,-181,566,16358,-4,-32,-2,0,0,2
20.290045,-189,576,16361,-4,-32,-2,0,0,2
20.300045,-186,580,16356,-3,-33,-3,1,-1,1
20.310045,-180,575,16355,-1,-34,-3,3,-2,1
20.320045,-176,567,16356,-2,-33,-3,2,-1,1
20.330045,-180,569,16353,-2,-32,-2,2,0,2
20.340045,-169,594,16358,-3,-32,-3,1,0,1
20.350044,-174,590,16346,-4,-33,-3,0,-1,1
20.360045,-175,561,16336,-2,-33,-4,2,-1,0
20.370044,-176,563,16340,-1,-34,-4,3,-2,0
20.380045,-176,557,16346,-2,-33,-4,2,-1,0
20.390044,-182,554,16361,-3,-32,-4,1,0,0
20.400045,-187,554,16354,-3,-32,-4,1,0,0
20.410043,-182,555,16357,-2,-32,-3,2,0,1
20.420045,-178,555,16359,-2,-32,-3,2,0,1
20.430044,-175,570,16360,-2,-32,-2,2,0,2
20.440045,-176,576,16355,-2,-32,-2,2,0,2
20.450044,-181,574,16362,-2,-31,-2,2,1,2
20.460046,-181,569,16355,-2,-32,-3,2,0,1
20.470043,-177,568,16358,-2,-31,-3,2,1,1
20.480045,-165,564,16360,-1,-32,-4,3,0,0
20.490044,-170,571,16364,-2,-32,-4,2,0,0
20.500044,-168,581,16354,-3,-32,-3,1,0,1
20.510044,-166,577,16356,-3,-32,-3,1,0,1
20.520044,-168,571,16354,-3,-32,-3,1,0,1
20.530043,-188,563,16358,-3,-33,-4,1,-1,0
20.540045,-179,571,16359,-2,-33,-3,2,-1,1
20.550043,-184,576,16360,-2,-33,-2,2,-1,2
20.560044,-184,575,16354,-1,-32,-2,3,0,2
20.570045,-193,584,16346,-3,-33,-2,1,-1,2
20.580044,-190,594,16351,-3,-34,-3,1,-2,1
20.590044,-192,585,16350,-3,-34,-3,1,-2,1
20.600044,-192,582,16340,-1,-35,-3,3,-3,1
20.610043,-188,576,16336,-2,-34,-2,2,-2,2
20.620044,-187,571,16337,-3,-33,-2,1,-1,2
20.630044,-184,569,16354,-3,-33,-2,1,-1,2
20.640044,-186,557,16352,-3,-33,-2,1,-1,2
20.650043,-184,565,16345,-3,-32,-3,1,0,1
20.660045,-182,564,16344,-3,-33,-3,1,-1,1
20.670044,-180,563,16339,-2,-33,-2,2,-1,2
20.680045,-180,556,16347,-2,-32,-3,2,0,1
20.690043,-180,552,16361,-4,-30,-4,0,2,0
20.700049,-180,551,16365,-4,-31,-2,0,1,2
20.710043,-180,549,16358,-4,-31,-3,0,1,1
20.720045,-184,546,16366,-3,-31,-2,1,1,2
20.730043,-171,560,16371,-2,-31,-2,2,1,2
20.740045,-164,582,16366,-1,-31,-3,3,1,1
20.750043,-165,578,16355,-3,-31,-2,1,1,2
20.760045,-181,555,16341,-3,-30,-3,1,2,1
20.770044,-177,557,16352,-4,-30,-3,0,2,1
20.780044,-187,560,16358,-1,-31,-3,3,1,1
20.790043,-182,581,16357,-1,-32,-3,3,0,1
20.800045,-178,579,16349,-2,-32,-3,2,0,1
20.810045,-175,578,16347,-4,-32,-4,0,0,0
20.820045,-177,589,16344,-5,-32,-3,-1,0,1
20.830043,-174,579,16356,-4,-32,-4,0,0,0
20.840043,-179,573,16354,-3,-33,-4,1,-1,0
20.850045,-177,574,16346,-3,-32,-4,1,0,0
20.860044,-187,579,16351,-3,-32,-4,1,0,0
20.870045,-191,578,16358,-3,-32,-2,1,0,2
20.880044,-189,577,16354,-4,-31,-1,0,1,3
20.890044,-192,572,16349,-5,-30,-1,-1,2,3
20.900044,-203,565,16351,-4,-30,-1,0,2,3
20.910044,-193,568,16335,-2,-32,-1,2,0,3
20.920044,-205,575,16331,-2,-33,0,2,-1,4
20.930045,-184,591,16338,-3,-33,-1,1,-1,3
20.940045,-181,587,16338,-4,-32,-1,0,0,3
20.950043,-182,589,16335,-4,-32,-2,0,0,2
20.960045,-174,594,16337,-3,-33,-2,1,-1,2
20.970044,-170,588,16344,-3,-32,-2,1,0,2
20.980044,-184,581,16357,-4,-32,-3,0,0,1
20.990044,-176,578,16348,-5,-32,-3,-1,0,1
21.000044,-183,578,16335,-4,-33,-3,0,-1,1
21.010045,-180,572,16333,-3,-33,-2,1,-1,2
21.020044,-184,570,16335,-3,-33,-2,1,-1,2
21.030043,-186,566,16335,-3,-32,-3,1,0,1
21.040043,-183,572,16342,-4,-33,-3,0,-1,1
21.050045,-179,574,16342,-4,-33,-3,0,-1,1
21.060043,-187,569,16337,-4,-32,-4,0,0,0
21.070044,-199,560,16327,-3,-31,-4,1,1,0
21.080043,-193,565,16328,-2,-31,-3,2,1,1
21.090044,-189,566,16338,-3,-31,-3,1,1,1
21.100044,-183,584,16355,-3,-31,-3,1,1,1
21.110044,-185,587,16352,-3,-31,-2,1,1,2
21.120044,-183,581,16343,-4,-30,-2,0,2,2
21.130044,-184,567,16355,-3,-30,-3,1,2,1
21.140043,-183,568,16356,-2,-32,-3,2,0,1
21.150044,-173,581,16353,-2,-33,-4,2,-1,0
21.160044,-173,575,16356,-2,-34,-4,2,-2,0
21.170044,-174,580,16344,-3,-33,-5,1,-1,-1
21.180044,-171,575,16349,-3,-32,-5,1,0,-1
21.190043,-172,581,16341,-2,-32,-5,2,0,-1
21.200044,-173,582,16339,-2,-32,-5,2,0,-1
21.210048,-174,566,16344,-3,-33,-6,1,-1,-2
21.220044,-183,565,16340,-3,-33,-5,1,-1,-1
21.230043,-182,566,16345,-3,-32,-4,1,0,0
21.240042,-194,561,16345,-4,-31,-4,0,1,0
21.250044,-192,563,16344,-3,-31,-3,1,1,1
21.260047,-189,586,16345,-4,-30,-3,0,2,1
21.270045,-185,578,16349,-4,-31,-3,0,1,1
21.280044,-183,574,16341,-2,-32,-2,2,0,2
21.290044,-192,577,16344,-2,-32,-3,2,0,1
21.300044,-189,579,16336,-2,-31,-2,2,1,2
21.310044,-184,578,16326,-2,-31,-3,2,1,1
21.320044,-185,576,16338,-2,-31,-3,2,1,1
21.330044,-185,570,16362,-1,-31,-4,3,1,0
21.340044,-170,574,16368,-1,-32,-4,3,0,0
21.350044,-178,564,16362,-3,-32,-4,1,0,0
21.360044,-188,576,16347,-3,-33,-4,1,-1,0
21.370044,-192,585,16347,-3,-32,-5,1,0,-1
21.380044,-186,596,16362,-3,-32,-3,1,0,1
21.390044,-182,588,16359,-3,-33,-3,1,-1,1
21.400043,-194,570,16338,-4,-33,-2,0,-1,2
21.410044,-186,578,16338,-4,-34,-2,0,-2,2
21.420044,-181,576,16337,-3,-33,-3,1,-1,1
21.430043,-184,572,16345,-3,-32,-3,1,0,1
21.440043,-183,571,16344,-3,-32,-4,1,0,0
21.450044,-181,571,16337,-3,-33,-5,1,-1,-1
21.460044,-179,563,16334,-3,-33,-4,1,-1,0
21.470044,-191,568,16347,-1,-34,-4,3,-2,0
21.480044,-187,577,16346,0,-34,-4,4,-2,0
21.490044,-187,571,16348,-1,-33,-4,3,-1,0
21.500044,-179,567,16349,-1,-33,-3,3,-1,1
21.510044,-185,565,16343,-1,-33,-2,3,-1,2
21.520044,-189,565,16348,-3,-33,-3,1,-1,1
21.530044,-190,560,16358,-3,-32,-2,1,0,2
21.540044,-204,555,16359,-3,-30,-2,1,2,2
21.550044,-201,562,16351,-3,-30,-3,1,2,1
21.560044,-193,561,16345,-3,-32,-3,1,0,1
21.570044,-187,566,16356,-3,-32,-3,1,0,1
21.580044,-188,578,16363,-3,-31,-3,1,1,1
21.590044,-181,579,16359,-3,-32,-4,1,0,0
21.600044,-183,582,16344,-2,-31,-4,2,1,0
21.610044,-191,584,16336,-2,-31,-5,2,1,-1
21.620043,-197,578,16348,-2,-32,-4,2,0,0
21.630044,-195,584,16351,-1,-32,-4,3,0,0
21.640043,-185,577,16346,-2,-31,-4,2,1,0
21.650044,-180,578,16340,-4,-31,-6,0,1,-2
21.660044,-184,590,16340,-6,-31,-4,-2,1,0
21.670044,-184,593,16342,-6,-31,-4,-2,1,0
21.680043,-191,586,16342,-4,-33,-5,0,-1,-1
21.690045,-189,568,16343,-4,-33,-4,0,-1,0
21.700066,-189,571,16334,-3,-33,-3,1,-1,1
21.710066,-188,569,16329,-4,-33,-4,0,-1,0
21.720044,-193,567,16341,-5,-33,-4,-1,-1,0
21.730044,-199,558,16343,-5,-32,-3,-1,0,1
21.740043,-202,559,16346,-3,-32,-3,1,0,1
21.750044,-200,579,16340,-3,-33,-3,1,-1,1
21.760044,-183,568,16328,-2,-33,-3,2,-1,1
21.770044,-195,573,16324,-3,-32,-4,1,0,0
21.780044,-186,570,16345,-4,-31,-4,0,1,0
21.790044,-179,568,16352,-4,-30,-4,0,2,0
21.800044,-177,573,16339,-1,-33,-3,3,-1,1
21.810043,-177,561,16337,-1,-33,-2,3,-1,2
21.820044,-175,572,16338,0,-33,-2,4,-1,2
21.830043,-179,567,16335,-1,-32,-2,3,0,2
21.840042,-182,573,16336,-3,-32,-2,1,0,2
21.850044,-185,575,16333,-4,-31,-2,0,1,2
21.860043,-190,579,16333,-3,-31,-3,1,1,1
21.870043,-190,575,16332,-1,-33,-3,3,-1,1
21.880044,-188,562,16341,-1,-34,-5,3,-2,-1
21.890044,-190,562,16336,-1,-34,-4,3,-2,0
21.900043,-192,577,16332,-3,-32,-4,1,0,0
21.910043,-196,574,16334,-3,-32,-4,1,0,0
21.920042,-192,595,16355,-3,-32,-3,1,0,1
21.930043,-192,589,16354,-3,-32,-2,1,0,2
21.940060,-198,577,16358,-2,-33,-3,2,-1,1
21.950045,-180,570,16346,-2,-33,-3,2,-1,1
21.960043,-183,577,16342,-1,-33,-3,3,-1,1
21.970119,-174,579,16351,-1,-34,-2,3,-2,2
21.980072,-174,584,16341,-2,-33,-2,2,-1,2
21.990071,-169,583,16356,-2,-33,-2,2,-1,2
22.000072,-169,583,16350,-3,-34,-2,1,-2,2
22.010110,-159,574,16337,-3,-34,-2,1,-2,2
22.020109,-161,573,16334,-3,-33,-3,1,-1,1
22.030073,-159,574,16343,-3,-32,-4,1,0,0
22.040070,-180,579,16343,-2,-33,-3,2,-1,1
22.050072,-181,567,16330,-1,-33,-3,3,-1,1
22.060071,-186,563,16325,-1,-33,-3,3,-1,1
22.070253,-185,558,16329,-2,-33,-2,2,-1,2
22.080063,-187,547,16337,-4,-32,-3,0,0,1
22.090065,-183,554,16343,-3,-34,-3,1,-2,1
22.100065,-175,559,16341,-2,-35,-3,2,-3,1
22.110065,-188,567,16326,-1,-35,-3,3,-3,1
22.120065,-197,560,16336,-2,-33,-2,2,-1,2
22.130064,-193,557,16355,-3,-32,-3,1,0,1
22.140064,-196,559,16348,-5,-32,-3,-1,0,1
22.150064,-201,554,16348,-4,-33,-3,0,-1,1
22.160065,-186,561,16344,-4,-34,-3,0,-2,1
22.170064,-188,554,16335,-3,-34,-2,1,-2,2
22.180076,-178,561,16337,-2,-33,-3,2,-1,1
22.190071,-168,569,16337,-2,-32,-3,2,0,1
22.200071,-182,577,16330,-3,-32,-3,1,0,1
22.210070,-176,576,16328,-3,-32,-3,1,0,1
22.220070,-183,571,16324,-3,-32,-3,1,0,1
22.230068,-186,573,16353,-2,-33,-2,2,-1,2
22.240067,-190,578,16358,0,-34,-2,4,-2,2
22.250070,-177,585,16341,-4,-33,-3,0,-1,1
22.260070,-177,586,16334,-4,-33,-4,0,-1,0
22.270070,-179,585,16342,-5,-32,-4,-1,0,0
22.280070,-185,569,16357,-4,-32,-3,0,0,1
22.290070,-183,576,16360,-4,-32,-4,0,0,0
22.300070,-191,585,16354,-3,-32,-3,1,0,1
22.310069,-193,573,16344,-3,-32,-4,1,0,0
22.320070,-179,572,16340,-5,-32,-3,-1,0,1
22.330070,-174,580,16351,-4,-31,-3,0,1,1
22.340071,-174,577,16352,-3,-32,-2,1,0,2
22.350070,-180,583,16347,-3,-31,-3,1,1,1
22.360070,-184,585,16346,-3,-30,-2,1,2,2
22.370069,-177,575,16345,-2,-32,-2,2,0,2
22.380070,-175,569,16345,-2,-32,-2,2,0,2
22.390069,-173,562,16328,-4,-32,-3,0,0,1
22.400070,-179,560,16329,-3,-31,-2,1,1,2
22.410070,-178,564,16323,-2,-32,-3,2,0,1
22.420070,-185,570,16325,-1,-32,-4,3,0,0
22.430067,-182,571,16338,-2,-32,-4,2,0,0
22.440066,-186,564,16349,-3,-31,-3,1,1,1
22.450071,-188,555,16338,-3,-30,-3,1,2,1
22.460069,-188,567,16326,-2,-30,-4,2,2,0
22.470070,-186,565,16320,-1,-31,-4,3,1,0
22.480071,-188,573,16334,0,-32,-4,4,0,0
22.490070,-188,574,16333,-2,-32,-4,2,0,0
22.500070,-185,583,16343,-3,-31,-4,1,1,0
22.510069,-179,571,16341,-2,-31,-3,2,1,1
22.520070,-180,568,16335,-3,-32,-4,1,0,0
22.530070,-176,569,16358,-3,-33,-2,1,-1,2
22.540070,-186,572,16338,-2,-33,-3,2,-1,1
22.550069,-182,569,16331,-2,-33,-3,2,-1,1
22.560069,-201,556,16332,-4,-31,-3,0,1,1
22.570067,-200,550,16324,-4,-31,-3,0,1,1
22.580066,-205,557,16337,-3,-32,-1,1,0,3
22.590070,-202,553,16339,-3,-32,-2,1,0,2
22.600070,-201,555,16332,-2,-32,-3,2,0,1
22.610070,-190,549,16325,-1,-33,-2,3,-1,2
22.620070,-186,555,16330,-2,-32,-3,2,0,1
22.630067,-186,549,16332,-5,-32,-3,-1,0,1
22.640067,-191,553,16331,-5,-32,-2,-1,0,2
22.650070,-193,557,16321,-2,-33,-2,2,-1,2
22.660070,-192,543,16320,-2,-33,-2,2,-1,2
22.670069,-194,549,16319,-2,-32,-2,2,0,2
22.680069,-193,549,16328,-3,-32,-2,1,0,2
22.690069,-195,559,16342,-4,-31,-3,0,1,1
22.700069,-193,547,16338,-3,-31,-3,1,1,1
22.710067,-196,553,16324,-2,-33,-3,2,-1,1
22.720070,-190,558,16324,-2,-33,-2,2,-1,2
22.730069,-192,569,16334,-3,-33,-2,1,-1,2
22.740070,-191,585,16326,-4,-32,-2,0,0,2
22.750070,-195,572,16334,-5,-32,-2,-1,0,2
22.760069,-200,569,16331,-5,-32,-2,-1,0,2
22.770069,-193,573,16337,-4,-32,-1,0,0,3
22.780071,-197,566,16342,-2,-33,0,2,-1,4
22.790070,-191,570,16351,-2,-33,-2,2,-1,2
22.800070,-187,572,16343,-2,-33,-3,2,-1,1
22.810069,-186,579,16340,-3,-31,-3,1,1,1
22.820070,-182,574,16344,-4,-31,-3,0,1,1
22.830069,-175,570,16344,-3,-32,-4,1,0,0
22.840066,-179,559,16344,-2,-34,-4,2,-2,0
22.850070,-182,568,16339,-2,-34,-4,2,-2,0
22.860070,-182,574,16330,-4,-31,-4,0,1,0
22.870069,-184,565,16332,-4,-31,-4,0,1,0
22.880069,-194,569,16326,-4,-31,-4,0,1,0
22.890070,-185,566,16331,-2,-32,-4,2,0,0
22.900069,-187,571,16326,-2,-32,-4,2,0,0
22.910069,-200,572,16316,-5,-31,-4,-1,1,0
22.920070,-201,561,16323,-4,-32,-3,0,0,1
22.930070,-194,567,16329,-4,-31,-3,0,1,1
22.940066,-193,563,16333,-3,-31,-2,1,1,2
22.950070,-196,561,16331,-3,-31,-2,1,1,2
22.960066,-195,562,16341,-2,-32,-3,2,0,1
22.970070,-197,561,16337,-1,-32,-3,3,0,1
22.980094,-193,552,16352,-2,-30,-2,2,2,2
22.990102,-190,555,16343,-2,-31,-2,2,1,2
23.000105,-199,558,16342,-3,-32,-2,1,0,2
23.010089,-201,543,16330,-3,-32,-2,1,0,2
23.020070,-197,550,16334,-2,-32,-3,2,0,1
23.030084,-196,554,16338,-3,-32,-4,1,0,0
23.040078,-192,560,16331,-3,-32,-3,1,0,1
23.050077,-192,559,16332,-3,-32,-2,1,0,2
23.060087,-186,560,16327,-3,-32,-2,1,0,2
23.070075,-183,561,16324,-3,-32,-3,1,0,1
23.080077,-177,543,16336,-3,-32,-4,1,0,0
23.090055,-181,559,16330,-3,-33,-4,1,-1,0
23.100057,-184,560,16324,-3,-32,-4,1,0,0
23.110085,-176,564,16322,-2,-33,-4,2,-1,0
23.120100,-180,562,16321,-2,-33,-5,2,-1,-1
23.130076,-176,568,16338,-2,-33,-4,2,-1,0
23.140080,-190,573,16333,-2,-33,-3,2,-1,1
23.150042,-180,591,16332,-1,-33,-4,3,-1,0
23.160042,-180,586,16345,-2,-32,-4,2,0,0
23.170042,-185,585,16342,-4,-31,-4,0,1,0
23.180042,-192,573,16338,-3,-31,-4,1,1,0
23.190042,-192,579,16339,-4,-32,-4,0,0,0
23.200042,-189,568,16328,-1,-32,-3,3,0,1
23.210043,-189,568,16333,-2,-32,-4,2,0,0
23.220042,-198,571,16332,-4,-31,-3,0,1,1
23.230042,-199,565,16344,-5,-32,-2,-1,0,2
23.240042,-198,567,16346,-3,-31,-2,1,1,2
23.250042,-191,564,16346,-3,-33,-3,1,-1,1
23.260042,-193,557,16341,-3,-33,-4,1,-1,0
23.270042,-183,564,16346,-4,-32,-5,0,0,-1
23.280042,-189,568,16360,-5,-32,-4,-1,0,0
23.290042,-198,570,16346,-4,-33,-3,0,-1,1
23.300042,-200,576,16349,-5,-32,-2,-1,0,2
23.310041,-192,567,16342,-5,-33,-2,-1,-1,2
23.320042,-186,556,16330,-5,-32,-2,-1,0,2
23.330041,-174,579,16346,-4,-32,-2,0,0,2
23.340042,-177,581,16334,-3,-31,-3,1,1,1
23.350042,-182,585,16329,-3,-30,-2,1,2,2
23.360042,-174,584,16330,-5,-30,-2,-1,2,2
23.370042,-174,580,16327,-5,-32,-3,-1,0,1
23.380042,-178,585,16342,-4,-32,-3,0,0,1
23.390042,-178,582,16330,-4,-32,-3,0,0,1
23.400042,-182,577,16329,-3,-32,-3,1,0,1
23.410042,-190,578,16330,-7,-32,-3,-3,0,1
23.420042,-188,569,16321,-6,-32,-2,-2,0,2
23.430042,-188,573,16336,-4,-33,-2,0,-1,2
23.440041,-186,579,16337,-4,-32,-4,0,0,0
23.450042,-181,581,16325,-4,-32,-3,0,0,1
23.460042,-183,574,16315,-3,-31,-3,1,1,1
23.470042,-177,571,16323,-3,-32,-3,1,0,1
23.480042,-182,575,16329,-2,-32,-2,2,0,2
23.490041,-190,576,16330,-1,-33,-2,3,-1,2
23.500042,-189,567,16337,-1,-33,-1,3,-1,3
23.510041,-185,566,16330,-2,-33,-2,2,-1,2
23.520042,-183,573,16321,-2,-32,-2,2,0,2
23.530041,-182,573,16336,-3,-31,-2,1,1,2
23.540041,-190,575,16329,-3,-32,-2,1,0,2
23.550042,-197,572,16324,-3,-31,-2,1,1,2
23.560042,-195,576,16330,-3,-32,-3,1,0,1
23.570042,-193,571,16332,-3,-31,-3,1,1,1
23.580040,-184,566,16338,-3,-31,-2,1,1,2
23.590042,-193,569,16343,-4,-30,-2,0,2,2
23.600042,-187,561,16342,-3,-31,-2,1,1,2
23.610042,-181,558,16336,-1,-32,-3,3,0,1
23.620042,-167,561,16344,-1,-34,-3,3,-2,1
23.630042,-162,564,16342,-1,-33,-4,3,-1,0
23.640041,-171,570,16341,-2,-34,-3,2,-2,1
23.650042,-190,564,16320,-3,-31,-4,1,1,0
23.660042,-188,554,16311,-3,-31,-4,1,1,0
23.670041,-183,562,16315,-3,-32,-4,1,0,0
23.680042,-183,577,16323,-2,-33,-4,2,-1,0
23.690041,-185,570,16339,-2,-31,-3,2,1,1
23.700042,-176,566,16333,-4,-31,-3,0,1,1
23.710042,-171,565,16335,-4,-31,-2,0,1,2
23.720042,-183,560,16331,-5,-30,-3,-1,2,1
23.730060,-187,559,16337,-5,-30,-2,-1,2,2
23.740046,-184,552,16343,-3,-32,-2,1,0,2
23.750050,-184,561,16336,-2,-32,-3,2,0,1
23.760043,-183,566,16327,-3,-31,-3,1,1,1
23.770041,-177,566,16334,-5,-31,-4,-1,1,0
23.780041,-175,566,16337,-3,-29,-4,1,3,0
23.790041,-164,563,16336,-1,-31,-3,3,1,1
23.800041,-167,567,16336,0,-30,-4,4,2,0
23.810042,-182,563,16326,-1,-31,-4,3,1,0
23.820041,-184,569,16327,-1,-31,-4,3,1,0
23.830040,-187,565,16333,-3,-31,-4,1,1,0
23.840041,-182,577,16347,-4,-31,-3,0,1,1
23.850042,-181,567,16349,-3,-31,-3,1,1,1
23.860041,-186,547,16327,-1,-32,-2,3,0,2
23.870041,-194,552,16329,-1,-32,-1,3,0,3
23.880054,-203,549,16333,-4,-31,-1,0,1,3
23.890042,-197,561,16337,-2,-31,-1,2,1,3
23.900042,-193,562,16335,-3,-32,-2,1,0,2
23.910041,-194,563,16327,-3,-30,-1,1,2,3
23.920041,-197,566,16328,-4,-30,-2,0,2,2
23.930041,-190,557,16330,-2,-30,-3,2,2,1
23.940040,-183,548,16330,-1,-31,-3,3,1,1
23.950055,-176,554,16332,-1,-31,-3,3,1,1
23.960059,-178,554,16324,-2,-30,-3,2,2,1
23.970042,-188,566,16329,-2,-30,-2,2,2,2
23.980042,-187,575,16345,-1,-32,-2,3,0,2
23.990041,-183,576,16339,-2,-32,-2,2,0,2
24.000041,-178,555,16319,-5,-30,-3,-1,2,1
24.010042,-194,552,16321,-4,-31,-4,0,1,0
24.020041,-192,554,16321,-3,-33,-3,1,-1,1
24.030041,-195,560,16337,-2,-33,-3,2,-1,1
24.040041,-197,552,16337,-2,-32,-4,2,0,0
24.050042,-201,559,16327,-5,-31,-3,-1,1,1
24.060278,-206,552,16328,-4,-30,-2,0,2,2
24.070043,-215,549,16335,-4,-31,-2,0,1,2
24.080040,-210,555,16337,-4,-31,-1,0,1,3
24.090045,-196,551,16328,-3,-32,-2,1,0,2
24.100042,-189,553,16321,-3,-32,-2,1,0,2
24.110042,-205,556,16323,-3,-32,-3,1,0,1
24.120040,-196,563,16314,-4,-33,-3,0,-1,1
24.130041,-189,560,16311,-4,-32,-3,0,0,1
24.140041,-186,549,16316,-4,-31,-3,0,1,1
24.150039,-174,544,16325,-4,-32,-4,0,0,0
24.160042,-177,547,16319,-3,-32,-4,1,0,0
24.170040,-165,544,16321,-1,-33,-4,3,-1,0
24.180041,-172,538,16329,-3,-32,-3,1,0,1
24.190041,-189,553,16333,-4,-32,-3,0,0,1
24.200041,-189,549,16323,-4,-32,-3,0,0,1
24.210046,-196,552,16326,-2,-32,-2,2,0,2
24.220042,-193,570,16333,-2,-33,-3,2,-1,1
24.230043,-197,571,16344,-2,-32,-3,2,0,1
24.240041,-195,573,16350,-4,-33,-2,0,-1,2
24.250041,-182,571,16346,-3,-32,-2,1,0,2
24.260042,-192,565,16340,-3,-32,-3,1,0,1
24.270040,-201,564,16340,-4,-32,-2,0,0,2
24.280041,-200,563,16343,-4,-32,-3,0,0,1
24.290041,-198,559,16347,-3,-32,-3,1,0,1
24.300041,-198,555,16348,-3,-32,-2,1,0,2
24.310128,-184,566,16349,-5,-31,-2,-1,1,2
24.320041,-184,558,16354,-5,-31,-2,-1,1,2
24.330040,-193,566,16364,-2,-32,-3,2,0,1
24.340041,-191,573,16369,-3,-33,-2,1,-1,2
24.350041,-187,576,16361,-4,-34,-2,0,-2,2
24.360041,-183,580,16347,-4,-33,-3,0,-1,1
24.370041,-187,567,16341,-4,-32,-2,0,0,2
24.380041,-189,555,16338,-4,-31,-4,0,1,0
24.390041,-193,558,16340,-3,-32,-4,1,0,0
24.400041,-198,561,16342,-2,-31,-4,2,1,0
24.410040,-202,562,16333,-3,-31,-3,1,1,1
24.420041,-197,554,16334,-3,-31,-3,1,1,1
24.430040,-195,552,16358,-3,-32,-4,1,0,0
24.440040,-194,545,16355,-3,-32,-3,1,0,1
24.450041,-181,557,16348,-3,-33,-2,1,-1,2
24.460041,-183,568,16342,-3,-33,-1,1,-1,3
24.470041,-183,562,16336,-4,-31,-1,0,1,3
24.480041,-188,565,16339,-5,-32,-3,-1,0,1
24.490041,-179,566,16339,-4,-31,-2,0,1,2
24.500041,-184,545,16325,-4,-31,-2,0,1,2
24.510041,-189,546,16320,-4,-31,-3,0,1,1
24.520041,-194,554,16326,-3,-32,-3,1,0,1
24.530042,-192,558,16333,-4,-31,-3,0,1,1
24.540040,-192,557,16327,-5,-31,-3,-1,1,1
24.550041,-200,560,16329,-7,-31,-2,-3,1,2
24.560040,-194,559,16330,-7,-31,-2,-3,1,2
24.570041,-180,567,16339,-3,-33,-2,1,-1,2
24.580040,-179,567,16345,-3,-33,-1,1,-1,3
24.590040,-191,570,16343,-4,-32,-2,0,0,2
24.600041,-185,557,16338,-5,-31,-3,-1,1,1
24.610041,-190,548,16346,-5,-32,-3,-1,0,1
24.620039,-185,544,16332,-4,-32,-3,0,0,1
24.630040,-187,550,16333,-3,-33,-3,1,-1,1
24.640041,-181,562,16342,-2,-33,-2,2,-1,2
24.650039,-173,564,16345,-2,-33,-2,2,-1,2
24.660041,-177,569,16338,-3,-32,-2,1,0,2
24.670040,-183,583,16334,-3,-32,-3,1,0,1
24.680041,-185,565,16343,-4,-32,-3,0,0,1
24.690041,-181,568,16340,-3,-32,-4,1,0,0
24.700041,-182,577,16338,-3,-33,-4,1,-1,0
24.710041,-176,580,16316,-1,-33,-3,3,-1,1
24.720055,-183,575,16311,-2,-33,-3,2,-1,1
24.730042,-188,573,16329,-5,-31,-4,-1,1,0
24.740040,-189,562,16327,-4,-30,-4,0,2,0
24.750041,-190,553,16335,-3,-31,-5,1,1,-1
24.760050,-186,551,16333,-1,-33,-5,3,-1,-1
24.770041,-181,557,16333,0,-34,-5,4,-2,-1
24.780040,-190,556,16343,-4,-32,-4,0,0,0
24.790040,-187,557,16345,-6,-32,-4,-2,0,0
24.800041,-190,563,16345,-5,-32,-3,-1,0,1
24.810040,-189,559,16340,-4,-32,-2,0,0,2
24.820040,-187,568,16332,-3,-32,-3,1,0,1
24.830041,-178,566,16344,-1,-32,-4,3,0,0
24.840040,-171,565,16346,-1,-33,-3,3,-1,1
24.850039,-178,569,16340,-2,-32,-2,2,0,2
24.860041,-177,574,16326,-3,-31,-2,1,1,2
24.870041,-184,569,16328,-3,-31,-3,1,1,1
24.880041,-182,565,16348,-2,-32,-2,2,0,2
24.890040,-193,561,16354,-2,-33,-2,2,-1,2
24.900040,-200,558,16344,-2,-33,-3,2,-1,1
24.910041,-200,560,16339,-3,-31,-3,1,1,1
24.920039,-193,569,16337,-4,-31,-3,0,1,1
24.930039,-202,561,16357,-4,-32,-3,0,0,1
24.940040,-205,566,16350,-4,-31,-3,0,1,1
24.950041,-200,561,16335,-4,-31,-1,0,1,3
24.960040,-201,562,16339,-5,-30,0,-1,2,4
24.970041,-195,575,16340,-5,-30,-1,-1,2,3
24.980040,-195,582,16337,-5,-30,0,-1,2,4
24.990040,-189,586,16342,-3,-32,0,1,0,4
25.000055,-172,579,16329,-4,-32,-1,0,0,3
25.010041,-179,570,16333,-5,-32,-2,-1,0,2
25.020040,-185,562,16339,-6,-31,-3,-2,1,1
25.030041,-188,568,16349,-5,-32,-2,-1,0,2
25.040040,-179,575,16352,-5,-33,-1,-1,-1,3
25.050040,-184,572,16353,-5,-32,-2,-1,0,2
25.060039,-176,581,16340,-3,-31,-1,1,1,3
25.070064,-190,577,16347,-3,-32,-2,1,0,2
25.080060,-182,583,16349,-3,-32,-3,1,0,1
25.090042,-186,565,16349,-3,-32,-3,1,0,1
25.100041,-193,574,16345,-3,-32,-4,1,0,0
25.110041,-184,571,16338,-2,-33,-2,2,-1,2
25.120040,-173,579,16338,-2,-33,-3,2,-1,1
25.130041,-166,585,16339,-4,-33,-4,0,-1,0
25.140040,-165,570,16344,-4,-32,-5,0,0,-1
25.150043,-173,570,16340,-6,-32,-5,-2,0,-1
25.160040,-184,575,16329,-6,-32,-5,-2,0,-1
25.170041,-191,568,16333,-4,-33,-4,0,-1,0
25.180040,-196,565,16336,-2,-34,-4,2,-2,0
25.190040,-180,573,16330,-2,-34,-4,2,-2,0
25.200040,-179,572,16335,-3,-34,-4,1,-2,0
25.210040,-184,570,16330,-5,-32,-2,-1,0,2
25.220040,-183,558,16324,-6,-32,-2,-2,0,2
25.230040,-189,565,16329,-4,-31,-2,0,1,2
25.240040,-192,573,16327,-2,-31,-3,2,1,1
25.250039,-192,574,16322,0,-32,-3,4,0,1
25.260040,-193,564,16323,-2,-31,-3,2,1,1
25.270040,-187,565,16329,-2,-31,-3,2,1,1
25.280040,-189,558,16339,-3,-30,-3,1,2,1
25.290039,-196,567,16348,-4,-30,-3,0,2,1
25.300046,-202,558,16351,-2,-31,-4,2,1,0
25.310039,-206,567,16339,-1,-32,-4,3,0,0
25.320039,-210,567,16341,-1,-33,-4,3,-1,0
25.330040,-213,569,16348,-2,-32,-4,2,0,0
25.340040,-203,569,16345,-2,-31,-4,2,1,0
25.350039,-191,571,16344,-3,-30,-4,1,2,0
25.360039,-173,573,16343,-3,-30,-4,1,2,0
25.370039,-177,571,16355,-3,-31,-4,1,1,0
25.380040,-181,567,16366,-2,-31,-4,2,1,0
25.390038,-191,563,16364,-1,-33,-4,3,-1,0
25.400040,-186,565,16356,-2,-33,-4,2,-1,0
25.410039,-180,552,16342,-3,-33,-4,1,-1,0
25.420040,-190,562,16347,-2,-32,-3,2,0,1
25.430038,-185,568,16351,-2,-33,-3,2,-1,1
25.440040,-199,562,16345,-3,-33,-3,1,-1,1
25.450039,-197,568,16332,-3,-33,-4,1,-1,0
25.460039,-189,550,16330,-3,-33,-4,1,-1,0
25.470039,-183,565,16331,-2,-33,-5,2,-1,-1
25.480040,-186,568,16341,-2,-34,-4,2,-2,0
25.490039,-182,575,16343,-3,-32,-3,1,0,1
25.500041,-176,569,16347,-4,-31,-3,0,1,1
25.510039,-183,561,16339,-4,-30,-3,0,2,1
25.520040,-183,557,16331,-4,-30,-3,0,2,1
25.530038,-188,564,16341,-2,-30,-3,2,2,1
25.540040,-176,572,16352,-1,-32,-2,3,0,2
25.550039,-174,581,16338,-1,-32,-3,3,0,1
25.560043,-181,586,16339,-3,-31,-3,1,1,1
25.570040,-183,585,16340,-5,-31,-2,-1,1,2
25.580040,-183,585,16351,-5,-31,-3,-1,1,1
25.590039,-170,569,16351,-4,-32,-3,0,0,1
25.600039,-175,561,16334,-4,-33,-3,0,-1,1
25.610039,-176,552,16331,-4,-33,-3,0,-1,1
25.620040,-177,553,16330,-3,-33,-3,1,-1,1
25.630039,-177,559,16341,-3,-31,-4,1,1,0
25.640039,-186,560,16341,-4,-30,-3,0,2,1
25.650039,-188,561,16336,-5,-31,-3,-1,1,1
25.660040,-197,561,16328,-3,-32,-3,1,0,1
25.670039,-194,569,16320,-2,-32,-2,2,0,2
25.680040,-196,567,16348,-1,-31,-1,3,1,3
25.690038,-181,563,16347,-1,-32,-1,3,0,3
25.700040,-186,567,16344,-4,-31,-2,0,1,2
25.710039,-189,567,16340,-3,-32,-3,1,0,1
25.720040,-192,564,16338,-2,-32,-3,2,0,1
25.730039,-189,569,16347,-1,-32,-3,3,0,1
25.740040,-188,565,16348,-1,-32,-2,3,0,2
25.750040,-178,573,16327,-1,-32,-2,3,0,2
25.760040,-181,573,16343,-1,-32,-2,3,0,2
25.770040,-181,592,16342,-1,-32,-2,3,0,2
25.780039,-184,579,16355,-2,-31,-2,2,1,2
25.790040,-185,575,16344,-3,-30,-3,1,2,1
25.800039,-192,562,16336,-1,-31,-4,3,1,0
25.810039,-190,558,16329,-1,-31,-4,3,1,0
25.820040,-196,561,16320,-2,-31,-5,2,1,-1
25.830039,-194,560,16324,-3,-32,-4,1,0,0
25.840038,-195,570,16328,-4,-32,-3,0,0,1
25.850038,-189,565,16328,-5,-32,-3,-1,0,1
25.860039,-198,562,16319,-5,-33,-2,-1,-1,2
25.870040,-195,567,16321,-4,-33,-3,0,-1,1
25.880039,-200,555,16332,-4,-33,-3,0,-1,1
25.890039,-196,552,16338,-1,-33,-2,3,-1,2
25.900040,-187,552,16333,-1,-34,-2,3,-2,2
25.910039,-193,561,16336,-4,-33,-2,0,-1,2
25.920039,-200,560,16337,-6,-32,-2,-2,0,2
25.930040,-203,563,16350,-6,-31,-2,-2,1,2
25.940040,-189,566,16349,-4,-32,-3,0,0,1
25.950039,-186,569,16351,-3,-33,-2,1,-1,2
25.960040,-176,568,16339,-2,-32,-3,2,0,1
25.970039,-181,559,16350,-3,-32,-2,1,0,2
25.980039,-180,558,16361,-4,-31,-3,0,1,1
25.990040,-189,558,16369,-6,-31,-2,-2,1,2
26.000040,-179,551,16372,-6,-31,-1,-2,1,3
26.010039,-188,551,16353,-5,-32,-2,-1,0,2
26.020039,-178,547,16353,-4,-33,-2,0,-1,2
26.030040,-177,552,16348,-2,-34,-3,2,-2,1
26.040038,-168,563,16376,-3,-33,-3,1,-1,1
26.050038,-180,570,16376,-2,-33,-3,2,-1,1
26.060040,-182,572,16357,-4,-30,-4,0,2,0
26.070101,-188,563,16358,-4,-31,-3,0,1,1
26.080085,-191,568,16366,-1,-33,-3,3,-1,1
26.090069,-191,570,16363,0,-33,-2,4,-1,2
26.100067,-194,569,16357,-2,-32,-2,2,0,2
26.110050,-185,573,16350,-3,-31,-2,1,1,2
26.120052,-186,567,16347,-4,-32,-3,0,0,1
26.130071,-181,576,16355,-4,-31,-2,0,1,2
26.140059,-187,571,16358,-3,-32,-2,1,0,2
26.150123,-190,578,16342,-2,-32,-2,2,0,2
26.160094,-187,575,16338,-2,-32,-2,2,0,2
26.170065,-193,570,16340,-1,-31,-2,3,1,2
26.180066,-191,574,16355,-2,-31,-3,2,1,1
26.190039,-186,575,16345,-3,-31,-4,1,1,0
26.200038,-185,569,16340,-3,-31,-4,1,1,0
26.210038,-184,568,16334,-2,-31,-4,2,1,0
26.220039,-180,559,16335,-2,-33,-4,2,-1,0
26.230038,-174,552,16345,-3,-31,-4,1,1,0
26.240038,-166,564,16348,-3,-30,-4,1,2,0
26.250039,-164,571,16337,-3,-30,-4,1,2,0
26.260039,-167,578,16337,-3,-30,-3,1,2,1
26.270039,-182,578,16323,-2,-32,-2,2,0,2
26.280039,-174,579,16336,-3,-32,-1,1,0,3
26.290039,-179,575,16336,-4,-32,-2,0,0,2
26.300040,-175,585,16335,-3,-32,-3,1,0,1
26.310040,-173,596,16331,-3,-32,-2,1,0,2
26.320039,-174,586,16344,-3,-33,-2,1,-1,2
26.330039,-181,572,16354,-4,-33,-3,0,-1,1
26.340039,-182,564,16354,-4,-33,-2,0,-1,2
26.350039,-183,572,16357,-3,-34,-1,1,-2,3
26.360039,-182,568,16346,-4,-33,-3,0,-1,1
26.370039,-176,556,16337,-4,-32,-4,0,0,0
26.380039,-176,554,16343,-4,-31,-4,0,1,0
26.390038,-186,560,16338,-4,-32,-2,0,0,2
26.400039,-176,556,16336,-3,-32,-2,1,0,2
26.410039,-186,559,16327,-3,-33,-3,1,-1,1
26.420039,-189,559,16331,-4,-32,-2,0,0,2
26.430039,-185,560,16342,-3,-32,-2,1,0,2
26.440038,-191,568,16340,-2,-33,-2,2,-1,2
26.450038,-188,569,16340,-2,-33,-1,2,-1,3
26.460040,-183,566,16342,-3,-34,-3,1,-2,1
26.470039,-189,573,16340,-3,-33,-4,1,-1,0
26.480039,-189,572,16345,-4,-32,-2,0,0,2
26.490039,-177,559,16350,-5,-32,-3,-1,0,1
26.500041,-177,567,16344,-4,-32,-3,0,0,1
26.510038,-187,568,16344,-3,-32,-3,1,0,1
26.520039,-195,581,16344,-3,-33,-3,1,-1,1
26.530039,-195,560,16359,-4,-33,-2,0,-1,2
26.540039,-195,562,16348,-4,-31,-2,0,1,2
26.550038,-199,563,16351,-4,-31,-3,0,1,1
26.560038,-185,575,16337,-3,-31,-3,1,1,1
26.570039,-180,569,16342,-2,-32,-3,2,0,1
26.580038,-183,564,16360,-2,-33,-2,2,-1,2
26.590038,-182,565,16353,-2,-33,-2,2,-1,2
26.600039,-189,571,16340,-1,-32,-3,3,0,1
26.610039,-185,576,16338,-2,-32,-3,2,0,1
26.620039,-183,567,16338,-1,-33,-3,3,-1,1
26.630040,-188,563,16344,-1,-33,-3,3,-1,1
26.640040,-187,557,16343,-2,-32,-3,2,0,1
26.650039,-187,559,16335,-2,-32,-2,2,0,2
26.660037,-198,557,16337,-2,-31,-4,2,1,0
26.670039,-202,541,16343,-3,-32,-4,1,0,0
26.680039,-194,549,16350,-2,-33,-5,2,-1,-1
26.690038,-195,565,16359,-3,-34,-4,1,-2,0
26.700038,-187,570,16347,-2,-33,-3,2,-1,1
26.710039,-189,569,16332,-3,-33,-4,1,-1,0
26.720037,-181,572,16335,-2,-33,-4,2,-1,0
26.730039,-177,563,16344,-2,-32,-3,2,0,1
26.740037,-178,569,16344,-1,-32,-3,3,0,1
26.750039,-164,564,16347,0,-32,-3,4,0,1
26.760038,-168,566,16350,-1,-33,-4,3,-1,0
26.770039,-175,565,16346,-3,-31,-4,1,1,0
26.780037,-181,569,16348,-3,-31,-4,1,1,0
26.790039,-193,561,16345,-1,-32,-3,3,0,1
26.800037,-187,564,16343,0,-32,-4,4,0,0
26.810040,-188,559,16336,0,-33,-3,4,-1,1
26.820038,-190,553,16323,-1,-33,-3,3,-1,1
26.830043,-180,558,16335,-1,-32,-3,3,0,1
26.840051,-179,554,16349,-3,-32,-3,1,0,1
26.850037,-187,559,16341,-4,-32,-4,0,0,0
26.860039,-186,563,16337,-4,-32,-3,0,0,1
26.870038,-187,558,16331,-4,-31,-3,0,1,1
26.880038,-176,562,16343,-4,-31,-4,0,1,0
26.890039,-174,569,16345,-4,-32,-4,0,0,0
26.900038,-176,565,16356,-5,-31,-3,-1,1,1
26.910039,-178,572,16335,-4,-32,-3,0,0,1
26.920038,-176,570,16333,-3,-32,-3,1,0,1
26.930038,-181,572,16355,-4,-31,-3,0,1,1
26.940049,-187,580,16347,-4,-32,-3,0,0,1
26.950040,-180,572,16343,-5,-31,-3,-1,1,1
26.960038,-190,560,16341,-3,-31,-2,1,1,2
26.970039,-188,564,16333,-2,-32,-2,2,0,2
26.980038,-179,564,16355,-1,-34,-3,3,-2,1
26.990039,-175,570,16353,-1,-34,-2,3,-2,2
27.000038,-175,569,16343,-2,-33,-4,2,-1,0
27.010052,-187,558,16336,-3,-32,-4,1,0,0
27.020057,-191,556,16337,-3,-32,-5,1,0,-1
27.030041,-206,571,16351,-2,-32,-3,2,0,1
27.040039,-197,578,16348,-1,-32,-4,3,0,0
27.050038,-198,572,16345,0,-32,-4,4,0,0
27.060038,-199,577,16347,-2,-32,-3,2,0,1
27.070039,-195,566,16340,-3,-31,-3,1,1,1
27.080037,-194,563,16352,-5,-31,-3,-1,1,1
27.090066,-191,565,16360,-5,-31,-3,-1,1,1
27.100049,-196,570,16357,-4,-32,-3,0,0,1
27.110039,-196,563,16352,-4,-32,-3,0,0,1
27.120038,-195,561,16352,-4,-32,-3,0,0,1
27.130038,-195,568,16361,-3,-32,-2,1,0,2
27.140038,-202,566,16360,-3,-30,-3,1,2,1
27.150038,-195,566,16351,-3,-29,-5,1,3,-1
27.160037,-199,572,16351,-3,-29,-4,1,3,0
27.170038,-195,568,16337,0,-31,-4,4,1,0
27.180039,-196,573,16353,-1,-32,-4,3,0,0
27.190038,-194,579,16354,-2,-32,-4,2,0,0
27.200037,-197,582,16353,-3,-30,-3,1,2,1
27.210038,-191,583,16352,-4,-31,-2,0,1,2
27.220037,-186,580,16356,-3,-32,-3,1,0,1
27.230038,-180,592,16360,-3,-31,-3,1,1,1
27.240038,-188,590,16346,-4,-32,-2,0,0,2
27.250037,-193,580,16344,-4,-33,-2,0,-1,2
27.260037,-188,582,16346,-4,-32,-2,0,0,2
27.270037,-196,580,16356,-3,-32,-2,1,0,2
27.280037,-194,578,16349,-3,-32,-3,1,0,1
27.290038,-197,568,16346,-4,-33,-3,0,-1,1
27.300037,-195,560,16347,-4,-33,-3,0,-1,1
27.310038,-200,557,16352,-2,-34,-3,2,-2,1
27.320053,-193,577,16349,-2,-34,-3,2,-2,1
27.330038,-191,581,16350,-4,-34,-3,0,-2,1
27.340038,-187,580,16348,-4,-32,-3,0,0,1
27.350038,-188,587,16346,-5,-31,-4,-1,1,0
27.360037,-187,582,16330,-5,-32,-4,-1,0,0
27.370038,-194,577,16324,-5,-32,-3,-1,0,1
27.380037,-194,561,16347,-3,-32,-4,1,0,0
27.390038,-190,564,16343,-2,-33,-4,2,-1,0
27.400038,-186,564,16336,-1,-33,-3,3,-1,1
27.410038,-183,575,16335,-1,-33,-2,3,-1,2
27.420038,-181,560,16334,-1,-33,-3,3,-1,1
27.430038,-186,548,16329,-3,-32,-4,1,0,0
27.440039,-195,542,16326,-5,-32,-4,-1,0,0
27.450037,-191,540,16330,-3,-32,-4,1,0,0
27.460037,-192,556,16320,-2,-35,-3,2,-3,1
27.470038,-201,564,16322,-1,-35,-4,3,-3,0
27.480037,-190,558,16324,-3,-32,-4,1,0,0
27.490037,-195,560,16332,-5,-32,-4,-1,0,0
27.500037,-194,555,16324,-5,-30,-3,-1,2,1
27.510038,-195,555,16327,-4,-31,-3,0,1,1
27.520036,-182,551,16319,-2,-34,-2,2,-2,2
27.530037,-182,561,16326,-1,-34,-2,3,-2,2
27.540037,-189,567,16324,-1,-33,-1,3,-1,3
27.550038,-190,563,16325,-1,-34,-1,3,-2,3
27.560039,-196,557,16327,-3,-33,-1,1,-1,3
27.570040,-187,557,16336,-4,-34,0,0,-2,4
27.580037,-196,556,16342,-3,-33,0,1,-1,4
27.590038,-189,558,16348,-2,-34,-1,2,-2,3
27.600037,-197,548,16342,-1,-33,-2,3,-1,2
27.610038,-202,565,16332,-2,-34,-1,2,-2,3
27.620037,-199,564,16335,-4,-32,-3,0,0,1
27.630038,-205,558,16355,-5,-32,-3,-1,0,1
27.640038,-199,558,16356,-3,-32,-3,1,0,1
27.650037,-196,553,16351,-2,-33,-2,2,-1,2
27.660037,-189,561,16346,-3,-34,-3,1,-2,1
27.670038,-184,559,16347,-3,-33,-2,1,-1,2
27.680037,-181,567,16348,-4,-33,-2,0,-1,2
27.690037,-185,575,16349,-3,-34,-2,1,-2,2
27.700037,-188,577,16335,-4,-33,-1,0,-1,3
27.710038,-192,576,16336,-5,-32,-1,-1,0,3
27.720037,-193,562,16334,-4,-33,-3,0,-1,1
27.730053,-197,563,16341,-3,-33,-2,1,-1,2
27.740043,-191,571,16334,-3,-32,-4,1,0,0
27.750038,-185,559,16330,-4,-32,-4,0,0,0
27.760037,-176,556,16333,-5,-32,-3,-1,0,1
27.770038,-176,556,16332,-4,-32,-3,0,0,1
27.780036,-188,565,16337,-2,-31,-3,2,1,1
27.790038,-185,556,16333,-3,-31,-2,1,1,2
27.800036,-180,550,16334,-3,-31,-3,1,1,1
27.810038,-175,564,16326,-3,-32,-3,1,0,1
27.820036,-184,563,16322,-4,-32,-3,0,0,1
27.830037,-184,562,16341,-3,-32,-4,1,0,0
27.840038,-184,569,16338,-4,-32,-3,0,0,1
27.850037,-186,566,16338,-6,-31,-3,-2,1,1
27.860036,-189,564,16349,-5,-31,-4,-1,1,0
27.870038,-184,552,16341,-4,-32,-4,0,0,0
27.880037,-182,559,16347,-2,-32,-3,2,0,1
27.890038,-175,556,16343,-2,-33,-4,2,-1,0
27.900037,-165,554,16341,-5,-33,-4,-1,-1,0
27.910038,-168,553,16339,-5,-32,-5,-1,0,-1
27.920037,-172,550,16338,-4,-32,-3,0,0,1
27.930037,-177,555,16351,-4,-33,-3,0,-1,1
27.940039,-174,561,16355,-2,-33,-3,2,-1,1
27.950038,-163,561,16355,-1,-32,-3,3,0,1
27.960037,-164,568,16348,-1,-32,-3,3,0,1
27.970037,-169,566,16348,-3,-32,-3,1,0,1
27.980037,-182,548,16350,-4,-31,-3,0,1,1
27.990038,-196,546,16342,-4,-31,-3,0,1,1
28.000038,-191,544,16339,-3,-32,-4,1,0,0
28.010038,-202,549,16339,-2,-33,-3,2,-1,1
28.020038,-190,552,16339,-1,-32,-3,3,0,1
28.030038,-187,555,16343,-2,-32,-3,2,0,1
28.040036,-184,559,16346,-2,-31,-3,2,1,1
28.050037,-195,557,16349,-3,-31,-3,1,1,1
28.060038,-189,561,16349,-3,-32,-4,1,0,0
28.070038,-189,565,16339,-1,-33,-2,3,-1,2
28.080112,-175,571,16349,-1,-33,-3,3,-1,1
28.090065,-190,566,16354,-2,-33,-3,2,-1,1
28.100064,-195,573,16351,-3,-31,-4,1,1,0
28.110065,-191,568,16340,-2,-31,-4,2,1,0
28.120062,-197,560,16336,-3,-31,-4,1,1,0
28.130064,-194,564,16336,-3,-32,-4,1,0,0
28.140064,-192,564,16340,0,-33,-4,4,-1,0
28.150064,-189,567,16334,-1,-33,-4,3,-1,0
28.160064,-186,561,16337,-3,-31,-4,1,1,0
28.170065,-185,566,16341,-4,-31,-4,0,1,0
28.180092,-188,565,16347,-4,-32,-4,0,0,0
28.190064,-186,573,16344,-3,-33,-3,1,-1,1
28.200065,-188,577,16346,-2,-33,-3,2,-1,1
28.210064,-189,574,16337,-4,-32,-3,0,0,1
28.220064,-187,566,16335,-4,-32,-4,0,0,0
28.230065,-184,575,16354,-2,-32,-4,2,0,0
28.240062,-184,578,16344,-3,-33,-3,1,-1,1
28.250062,-182,584,16354,-3,-33,-3,1,-1,1
28.260064,-180,585,16345,-4,-32,-3,0,0,1
28.270064,-177,584,16329,-4,-32,-2,0,0,2
28.280065,-182,579,16347,-4,-32,-3,0,0,1
28.290064,-181,574,16344,-5,-31,-3,-1,1,1
28.300064,-181,576,16343,-4,-31,-2,0,1,2
28.310065,-184,569,16345,-4,-31,-2,0,1,2
28.320064,-184,576,16336,-3,-31,-2,1,1,2
28.330064,-176,575,16343,-2,-32,-2,2,0,2
28.340065,-182,573,16348,-2,-32,-2,2,0,2
28.350065,-185,574,16351,-2,-30,-4,2,2,0
28.360064,-190,565,16348,-3,-31,-4,1,1,0
28.370064,-191,560,16346,-3,-33,-4,1,-1,0
28.380065,-188,558,16346,-3,-33,-4,1,-1,0
28.390065,-186,561,16348,-4,-32,-5,0,0,-1
28.400064,-202,565,16359,-3,-30,-3,1,2,1
28.410064,-190,560,16358,-3,-31,-3,1,1,1
28.420064,-186,560,16341,-2,-31,-4,2,1,0
28.430064,-188,554,16350,-2,-31,-3,2,1,1
28.440062,-190,570,16341,-3,-31,-3,1,1,1
28.450062,-195,560,16340,-3,-31,-2,1,1,2
28.460064,-196,553,16333,-3,-31,-3,1,1,1
