# fs_hz,100.0
# duration_s,4500
# gyro_offset_counts_x,-15
# gyro_offset_counts_y,-42
# gyro_offset_counts_z,350

t_s,accel_x,accel_y,accel_z,gyro_x_raw,gyro_y_raw,gyro_z_raw,gyro_x_corr,gyro_y_corr,gyro_z_corr
0.000019,1174,978,16507,20,-27,169,35,15,-181
0.010087,1137,971,16538,40,-25,162,55,17,-188
0.020088,1090,972,16561,49,-21,161,64,21,-189
0.030093,993,970,16541,57,-8,154,72,34,-196
0.040093,945,954,16501,59,-2,150,74,40,-200
0.050093,868,909,16405,61,2,146,76,44,-204
0.060092,835,885,16356,68,15,135,83,57,-215
0.070092,777,822,16220,73,22,129,88,64,-221
0.080108,746,814,16155,89,37,112,104,79,-238
0.090118,701,812,16097,97,43,102,112,85,-248
0.100106,651,812,16035,101,49,93,116,91,-257
0.110084,651,823,16035,102,56,74,117,98,-276
0.120087,627,865,16040,99,58,65,114,100,-285
0.130086,638,876,16049,96,59,52,111,101,-298
0.140085,655,881,16075,96,56,46,111,98,-304
0.150086,683,886,16094,106,45,38,121,87,-312
0.160085,725,900,16120,113,40,34,128,82,-316
0.170086,794,919,16145,123,34,30,138,76,-320
0.180085,834,926,16143,148,18,21,163,60,-329
0.190086,883,941,16158,160,9,16,175,51,-334
0.200085,888,948,16148,175,-7,8,190,35,-342
0.210086,911,929,16145,177,-14,3,192,28,-347
0.220081,952,888,16120,180,-28,-4,195,14,-354
0.230085,964,866,16120,181,-34,-10,196,8,-360
0.240083,953,811,16126,180,-38,-16,195,4,-366
0.250086,930,804,16126,181,-44,-28,196,-2,-378
0.260087,891,789,16175,180,-44,-36,195,-2,-386
0.270087,864,782,16190,170,-42,-51,185,0,-401
0.280086,834,761,16198,165,-42,-58,180,0,-408
0.290083,804,751,16220,159,-43,-65,174,-1,-415
0.300090,789,756,16217,141,-44,-78,156,-2,-428
0.310444,793,726,16232,129,-46,-83,144,-4,-433
0.320122,790,709,16227,109,-53,-87,124,-11,-437
0.330114,786,668,16226,103,-57,-88,118,-15,-438
0.340117,775,661,16225,94,-64,-89,109,-22,-439
0.350104,776,663,16228,95,-68,-88,110,-26,-438
0.360094,752,686,16269,97,-70,-87,112,-28,-437
0.370091,746,703,16289,102,-73,-87,117,-31,-437
0.380089,761,758,16323,105,-74,-88,120,-32,-438
0.390091,782,778,16337,113,-72,-92,128,-30,-442
0.400078,819,799,16352,115,-69,-96,130,-27,-446
0.410077,872,798,16381,122,-63,-108,137,-21,-458
0.420074,870,804,16397,124,-60,-115,139,-18,-465
0.430077,869,810,16414,123,-56,-122,138,-14,-472
0.440078,867,787,16407,112,-46,-132,127,-4,-482
0.450076,872,712,16408,108,-40,-137,123,2,-487
0.460078,867,674,16410,105,-25,-146,120,17,-496
0.470077,864,663,16408,105,-17,-151,120,25,-501
0.480078,845,615,16419,99,-1,-160,114,41,-510
0.490077,824,614,16436,91,7,-165,106,49,-515
0.500088,802,594,16487,84,15,-170,99,57,-520
0.510096,783,593,16534,67,31,-184,82,73,-534
0.520092,764,581,16611,56,38,-191,71,80,-541
0.530091,747,587,16651,32,46,-206,47,88,-556
0.540089,733,601,16684,20,44,-211,35,86,-561
0.550092,733,631,16705,-7,36,-217,8,78,-567
0.560088,755,629,16709,-23,30,-218,-8,72,-568
0.570092,818,630,16680,-34,21,-217,-19,63,-567
0.580093,875,639,16667,-42,0,-214,-27,42,-564
0.590152,967,729,16681,-38,-14,-211,-23,28,-561
0.600118,1009,803,16690,-22,-39,-206,-7,3,-556
0.610097,1038,890,16717,-17,-54,-202,-2,-12,-552
0.620090,1080,1071,16780,-11,-72,-198,4,-30,-548
0.630096,1114,1141,16817,-3,-110,-190,12,-68,-540
0.640089,1175,1283,16906,0,-125,-184,15,-83,-534
0.650091,1184,1330,16937,10,-148,-175,25,-106,-525
0.660121,1180,1404,16989,17,-157,-170,32,-115,-520
0.670147,1144,1437,16989,32,-172,-160,47,-130,-510
0.680154,1103,1468,16968,34,-179,-154,49,-137,-504
0.690153,1013,1501,16894,33,-186,-146,48,-144,-496
0.700106,971,1513,16847,23,-204,-132,38,-162,-482
0.710108,890,1499,16814,17,-216,-125,32,-174,-475
0.720148,860,1508,16758,-2,-235,-114,13,-193,-464
0.730123,836,1483,16730,-18,-244,-109,-3,-202,-459
0.740120,814,1450,16640,-53,-261,-101,-38,-219,-451
0.750124,805,1424,16600,-69,-270,-100,-54,-228,-450
0.760098,782,1425,16507,-88,-282,-97,-73,-240,-447
0.770120,765,1416,16477,-137,-305,-95,-122,-263,-445
0.780123,735,1398,16392,-166,-315,-93,-151,-273,-443
0.790121,727,1369,16337,-223,-337,-88,-208,-295,-438
0.800101,727,1347,16282,-247,-350,-88,-232,-308,-438
0.810099,770,1273,16201,-270,-360,-86,-255,-318,-436
0.820101,807,1237,16185,-304,-372,-87,-289,-330,-437
0.830094,879,1169,16119,-315,-375,-89,-300,-333,-439
0.840115,895,1146,16102,-317,-374,-95,-302,-332,-445
0.850132,885,1152,16072,-315,-374,-100,-300,-332,-450
0.860115,807,1182,16065,-315,-369,-113,-300,-327,-463
0.870106,756,1199,16058,-315,-367,-124,-300,-325,-474
0.880101,642,1219,16017,-314,-366,-133,-299,-324,-483
0.890093,603,1213,15976,-314,-361,-153,-299,-319,-503
0.900066,595,1150,15872,-311,-357,-162,-296,-315,-512
0.910065,602,1113,15837,-293,-346,-182,-278,-304,-532
0.920062,618,1080,15793,-278,-338,-191,-263,-296,-541
0.930063,700,1077,15735,-259,-329,-202,-244,-287,-552
0.940063,742,1096,15744,-222,-308,-222,-207,-266,-572
0.950064,802,1153,15765,-207,-296,-232,-192,-254,-582
0.960064,833,1183,15807,-178,-271,-248,-163,-229,-598
0.970062,896,1238,15869,-162,-257,-253,-147,-215,-603
0.980064,913,1244,15909,-129,-227,-265,-114,-185,-615
0.990063,910,1252,15954,-110,-209,-272,-95,-167,-622
1.000063,902,1281,16016,-91,-189,-285,-76,-147,-635
1.010062,896,1318,16037,-57,-149,-309,-42,-107,-659
1.020064,903,1402,16034,-43,-132,-311,-28,-90,-661
1.030063,869,1384,16027,-26,-96,-298,-11,-54,-648
1.040064,817,1280,15963,-16,-77,-292,-1,-35,-642
1.050064,766,1224,15936,10,-41,-282,25,1,-632
1.060063,714,1177,15927,19,-21,-278,34,21,-628
1.070063,563,1069,15918,26,0,-272,41,42,-622
1.080064,490,1047,15909,40,41,-258,55,83,-608
1.090064,373,1043,15945,46,61,-250,61,103,-600
1.100063,324,1056,15977,51,101,-232,66,143,-582
1.110063,284,1082,16039,50,120,-223,65,162,-573
1.120064,245,1176,16148,36,162,-204,51,204,-554
1.130063,258,1222,16175,25,184,-196,40,226,-546
1.140064,296,1289,16163,14,202,-189,29,244,-539
1.150063,351,1292,16130,-3,226,-175,12,268,-525
1.160063,495,1273,16088,-9,233,-168,6,275,-518
1.170063,550,1247,16072,-13,231,-152,2,273,-502
1.180063,592,1231,16047,-13,226,-141,2,268,-491
1.190063,701,1183,15993,-11,218,-131,4,260,-481
1.200063,744,1142,15976,-7,195,-106,8,237,-456
1.210062,847,1083,15980,-5,181,-92,10,223,-442
1.220067,901,1056,15986,-2,151,-63,13,193,-413
1.230083,985,1019,16029,1,138,-49,16,180,-399
1.240064,994,1003,16083,11,117,-22,26,159,-372
1.250062,985,998,16137,15,112,-10,30,154,-360
1.260063,926,984,16264,18,110,2,33,152,-348
1.270062,869,1000,16331,26,114,26,41,156,-324
1.280063,721,972,16412,27,119,38,42,161,-312
1.290061,636,951,16409,32,126,65,47,168,-285
1.300063,524,909,16383,34,127,78,49,169,-272
1.310061,494,876,16367,34,122,100,49,164,-250
1.320064,463,856,16334,32,118,108,47,160,-242
1.330061,514,804,16241,29,114,114,44,156,-236
1.340063,517,767,16242,27,105,119,42,147,-231
1.350063,519,782,16171,25,99,118,40,141,-232
1.360063,536,772,16173,18,85,108,33,127,-242
1.370062,528,772,16188,13,76,106,28,118,-244
1.380063,536,752,16236,9,56,102,24,98,-248
1.390064,543,739,16276,10,46,105,25,88,-245
1.400062,508,731,16364,17,36,110,32,78,-240
1.410099,506,726,16400,34,22,130,49,64,-220
1.420095,486,678,16469,43,17,141,58,59,-209
1.430064,490,663,16474,54,11,166,69,53,-184
1.440064,515,625,16467,56,11,177,71,53,-173
1.450063,601,526,16418,57,9,187,72,51,-163
1.460064,649,474,16393,66,6,202,81,48,-148
1.470062,726,374,16333,73,4,207,88,46,-143
1.480063,772,326,16302,89,-2,214,104,40,-136
1.490063,851,271,16284,94,-8,215,109,34,-135
1.500062,863,253,16295,99,-19,214,114,23,-136
1.510063,860,240,16325,100,-27,214,115,15,-136
1.520063,859,245,16374,101,-34,213,116,8,-137
1.530062,856,253,16411,103,-36,210,118,6,-140
1.540063,821,268,16504,108,-30,210,123,12,-140
1.550063,804,280,16566,131,-3,207,146,39,-143
1.560066,771,313,16639,145,15,205,160,57,-145
1.570063,676,453,16761,155,66,193,170,108,-157
1.580063,610,521,16781,152,88,184,167,130,-166
1.590064,522,607,16762,143,108,172,158,150,-178
1.600063,488,626,16725,105,143,138,120,185,-212
1.610061,427,591,16599,85,156,118,100,198,-232
1.620063,436,572,16472,43,165,75,58,207,-275
1.630062,448,537,16364,24,164,54,39,206,-296
1.640088,444,418,16174,3,148,16,18,190,-334
1.650063,421,369,16090,8,132,1,23,174,-349
1.660063,343,384,16028,12,113,-9,27,155,-359
1.670063,281,436,16043,-1,72,-19,14,114,-369
1.680063,201,557,16165,-22,58,-20,-7,100,-370
1.690062,156,605,16245,-64,41,-14,-49,83,-364
1.700063,120,653,16311,-76,35,-9,-61,77,-359
1.710090,125,806,16518,-87,36,-3,-72,78,-353
1.720117,134,888,16621,-115,53,13,-100,95,-337
1.730090,161,1040,16757,-130,68,22,-115,110,-328
1.740063,175,1107,16798,-155,105,40,-140,147,-310
1.750063,210,1184,16804,-160,121,50,-145,163,-300
1.760063,259,1234,16805,-161,149,67,-146,191,-283
1.770064,296,1267,16791,-161,163,73,-146,205,-277
1.780063,331,1346,16694,-163,171,78,-148,213,-272
1.790062,337,1366,16640,-169,174,85,-154,216,-265
1.800063,397,1378,16494,-175,168,84,-160,210,-266
1.810063,422,1362,16448,-184,147,78,-169,189,-272
1.820063,426,1344,16423,-184,132,74,-169,174,-276
1.830062,392,1308,16379,-175,94,65,-160,136,-285
1.840063,360,1260,16346,-172,73,63,-157,115,-287
1.850063,304,1152,16295,-170,49,62,-155,91,-288
1.860062,275,1113,16297,-167,-1,66,-152,41,-284
1.870063,245,1035,16294,-167,-24,67,-152,18,-283
1.880063,250,1000,16287,-161,-67,69,-146,-25,-281
1.890063,264,970,16269,-152,-86,69,-137,-44,-281
1.900063,283,927,16234,-119,-121,65,-104,-79,-285
1.910063,300,929,16232,-97,-136,63,-82,-94,-287
1.920063,318,942,16240,-69,-152,60,-54,-110,-290
1.930061,316,982,16239,-22,-177,55,-7,-135,-295
1.940063,319,1022,16194,-8,-188,52,7,-146,-298
1.950063,323,1024,16176,19,-208,50,34,-166,-300
1.960063,335,1033,16156,28,-213,47,43,-171,-303
1.970062,362,1021,16106,34,-212,42,49,-170,-308
1.980062,362,1007,16057,45,-200,34,60,-158,-316
1.990063,324,1012,15969,48,-192,30,63,-150,-320
2.000062,294,1020,15924,44,-173,25,59,-131,-325
2.010063,239,1011,15866,38,-164,24,53,-122,-326
2.020062,241,1010,15854,5,-141,24,20,-99,-326
2.030062,240,988,15861,-15,-123,24,0,-81,-326
2.040062,254,927,15855,-36,-101,27,-21,-59,-323
2.050081,273,894,15853,-68,-56,32,-53,-14,-318
2.060081,303,888,15898,-79,-34,39,-64,8,-311
2.070076,314,911,15948,-104,11,50,-89,53,-300
2.080063,318,930,15996,-117,33,59,-102,75,-291
2.090066,315,982,16101,-149,70,76,-134,112,-274
2.100061,315,1022,16159,-164,87,83,-149,129,-267
2.110063,313,1106,16256,-175,102,93,-160,144,-257
2.120062,306,1140,16290,-187,133,113,-172,175,-237
2.130062,310,1216,16327,-184,147,122,-169,189,-228
2.140062,297,1281,16339,-170,171,138,-155,213,-212
2.150066,269,1348,16347,-163,182,142,-148,224,-208
2.160063,235,1480,16374,-153,195,147,-138,237,-203
2.170067,232,1524,16369,-147,196,146,-132,238,-204
2.180063,249,1555,16343,-141,194,141,-126,236,-209
2.190062,265,1578,16328,-123,178,129,-108,220,-221
2.200063,335,1575,16262,-114,165,120,-99,207,-230
2.210062,372,1561,16225,-95,131,102,-80,173,-248
2.220084,415,1565,16191,-83,108,93,-68,150,-257
2.230062,514,1545,16173,-70,84,83,-55,126,-267
2.240065,562,1535,16189,-40,39,64,-25,81,-286
2.250062,681,1477,16230,-25,18,53,-10,60,-297
2.260062,729,1451,16254,11,-19,45,26,23,-305
2.270061,789,1387,16337,33,-39,45,48,3,-305
2.280062,818,1358,16386,80,-78,60,95,-36,-290
2.290062,837,1317,16432,100,-94,72,115,-52,-278
2.300062,866,1224,16521,118,-107,89,133,-65,-261
2.310062,873,1168,16561,144,-126,126,159,-84,-224
2.320062,869,1038,16622,153,-128,143,168,-86,-207
2.330063,855,985,16630,155,-117,174,170,-75,-176
2.340062,825,926,16621,151,-108,188,166,-66,-162
2.350063,759,827,16556,138,-85,209,153,-43,-141
2.360335,724,775,16522,126,-71,216,141,-29,-134
2.370064,608,704,16446,107,-57,220,122,-15,-130
2.380063,562,678,16403,65,-30,220,80,12,-130
2.390064,513,601,16306,40,-18,216,55,24,-134
2.400062,498,562,16272,-2,2,204,13,44,-146
2.410062,498,537,16246,-18,11,196,-3,53,-154
2.420063,533,515,16233,-40,22,177,-25,64,-173
2.430061,566,515,16228,-45,24,169,-30,66,-181
2.440063,636,492,16220,-44,22,161,-29,64,-189
2.450062,671,510,16239,-22,10,149,-7,52,-201
2.460063,740,518,16287,-5,2,146,10,44,-204
2.470062,745,534,16324,36,-14,146,51,28,-204
2.480062,753,548,16343,57,-23,148,72,19,-202
2.490062,765,564,16348,72,-32,150,87,10,-200
2.500062,765,535,16341,98,-47,152,113,-5,-198
2.510062,742,501,16288,109,-51,151,124,-9,-199
2.520062,722,486,16261,127,-48,140,142,-6,-210
2.530062,697,479,16199,136,-44,132,151,-2,-218
2.540062,675,509,16164,145,-33,106,160,9,-244
2.550062,654,553,16145,140,-25,90,155,17,-260
2.560063,599,601,16107,135,-17,70,150,25,-280
2.570080,572,629,16098,117,-7,27,132,35,-323
2.580063,525,674,16074,103,-3,7,118,39,-343
2.590063,500,673,16064,71,0,-31,86,42,-381
2.600061,477,660,16054,57,-4,-47,72,38,-397
2.610061,484,624,16020,27,-17,-68,42,25,-418
2.620063,508,601,16016,16,-26,-75,31,16,-425
2.630061,558,553,16005,10,-37,-81,25,5,-431
2.640063,603,533,16002,-2,-58,-84,13,-16,-434
2.650063,665,463,16018,-11,-67,-85,4,-25,-435
2.660063,697,432,16051,-15,-79,-85,0,-37,-435
2.670063,728,416,16092,-14,-79,-88,1,-37,-438
2.680062,786,416,16144,-16,-76,-92,-1,-34,-442
2.690062,795,438,16152,-23,-67,-102,-8,-25,-452
2.700062,819,494,16184,-32,-65,-108,-17,-23,-458
2.710063,834,502,16198,-53,-66,-120,-38,-24,-470
2.720062,878,451,16208,-63,-65,-126,-48,-23,-476
2.730062,887,421,16185,-73,-64,-142,-58,-22,-492
2.740062,892,385,16170,-73,-60,-150,-58,-18,-500
2.750062,889,311,16141,-69,-56,-158,-54,-14,-508
2.760062,866,298,16148,-49,-46,-173,-34,-4,-523
2.770061,790,333,16245,-40,-40,-180,-25,2,-530
2.780062,741,368,16300,-30,-23,-191,-15,19,-541
2.790062,665,466,16408,-28,-16,-194,-13,26,-544
2.800061,639,517,16459,-36,0,-197,-21,42,-547
2.810062,633,535,16501,-45,8,-196,-30,50,-546
2.820062,606,532,16541,-54,17,-193,-39,59,-543
2.830061,607,532,16528,-68,32,-182,-53,74,-532
2.840062,639,476,16471,-71,37,-175,-56,79,-525
2.850061,662,451,16443,-69,39,-155,-54,81,-505
2.860062,688,443,16403,-69,37,-145,-54,79,-495
2.870062,716,437,16369,-73,30,-131,-58,72,-481
2.880062,700,450,16348,-78,23,-126,-63,65,-476
2.890062,664,475,16332,-85,16,-123,-70,58,-473
2.900062,633,495,16344,-109,-1,-123,-94,41,-473
2.910060,594,515,16381,-123,-11,-123,-108,31,-473
2.920061,583,506,16420,-143,-33,-123,-128,9,-473
2.930062,572,502,16478,-146,-42,-121,-131,0,-471
2.940062,523,498,16603,-145,-49,-118,-130,-7,-468
2.950062,473,504,16675,-132,-59,-110,-117,-17,-460
2.960062,361,538,16792,-125,-61,-103,-110,-19,-453
2.970061,314,553,16823,-118,-68,-88,-103,-26,-438
2.980062,288,574,16843,-116,-72,-80,-101,-30,-430
2.990062,312,567,16835,-112,-77,-70,-97,-35,-420
3.000062,344,550,16818,-108,-75,-68,-93,-33,-418
3.010061,448,541,16773,-102,-74,-71,-87,-32,-421
3.020061,506,547,16739,-84,-66,-87,-69,-24,-437
3.030061,583,606,16668,-77,-63,-100,-62,-21,-450
3.040066,609,635,16647,-72,-59,-139,-57,-17,-489
3.050081,633,667,16610,-75,-59,-162,-60,-17,-512
3.060116,651,666,16601,-80,-64,-209,-65,-22,-559
3.070112,658,646,16585,-82,-67,-231,-67,-25,-581
3.080064,621,592,16555,-81,-70,-251,-66,-28,-601
3.090062,578,554,16540,-71,-74,-280,-56,-32,-630
3.100063,501,511,16460,-60,-76,-290,-45,-34,-640
3.110062,465,493,16431,-43,-78,-301,-28,-36,-651
3.120062,419,486,16397,-38,-80,-303,-23,-38,-653
3.130062,297,508,16337,-28,-86,-307,-13,-44,-657
3.140061,244,548,16295,-24,-93,-308,-9,-51,-658
3.150062,164,638,16230,-22,-99,-310,-7,-57,-660
3.160062,141,690,16186,-24,-110,-313,-9,-68,-663
3.170062,79,785,16138,-25,-116,-319,-10,-74,-669
3.180060,35,828,16107,-20,-122,-339,-5,-80,-689
3.190061,-20,879,16092,-18,-125,-353,-3,-83,-703
3.200060,-136,1010,16061,-16,-122,-370,-1,-80,-720
3.210062,-207,1078,16063,-11,-116,-403,4,-74,-753
3.220062,-319,1220,16048,-10,-113,-419,5,-71,-769
3.230061,-362,1262,16044,-12,-111,-446,3,-69,-796
3.240060,-402,1331,16031,-18,-109,-457,-3,-67,-807
3.250062,-427,1330,16028,-28,-110,-473,-13,-68,-823
3.260061,-434,1326,16022,-29,-113,-475,-14,-71,-825
3.270061,-421,1303,15950,-32,-117,-476,-17,-75,-826
3.280060,-395,1255,15903,-44,-132,-468,-29,-90,-818
3.290061,-282,1123,15797,-47,-142,-462,-32,-100,-812
3.300060,-208,1017,15776,-49,-157,-443,-34,-115,-793
3.310061,-154,931,15771,-41,-161,-430,-26,-119,-780
3.320076,-68,765,15852,-17,-155,-401,-2,-113,-751
3.330062,-34,716,15924,-6,-143,-384,9,-101,-734
3.340060,-1,619,16076,2,-125,-365,17,-83,-715
3.350062,0,589,16157,25,-86,-319,40,-44,-669
3.360061,19,575,16319,36,-66,-292,51,-24,-642
3.370061,42,587,16412,61,-21,-238,76,21,-588
3.380060,80,588,16483,73,3,-210,88,45,-560
3.390081,167,579,16533,94,52,-162,109,94,-512
3.400090,206,576,16510,108,73,-142,123,115,-492
3.410086,279,597,16437,128,89,-124,143,131,-474
3.420064,320,609,16395,163,112,-99,178,154,-449
3.430065,404,634,16285,175,116,-90,190,158,-440
3.440061,450,630,16186,198,116,-80,213,158,-430
3.450061,487,614,16131,210,109,-78,225,151,-428
3.460062,584,580,16047,222,101,-80,237,143,-430
3.470062,631,576,16040,246,78,-81,261,120,-431
3.480062,688,589,16029,254,65,-81,269,107,-431
3.490060,691,585,16052,261,34,-74,276,76,-424
3.500060,701,574,16148,261,17,-66,276,59,-416
3.510061,692,565,16235,254,-4,-47,269,38,-397
3.520060,682,554,16324,249,-8,-33,264,34,-383
3.530062,637,546,16466,243,-9,-16,258,33,-366
3.540060,622,530,16515,225,-5,22,240,37,-328
3.550061,583,516,16573,217,0,45,232,42,-305
3.560060,574,494,16570,197,7,88,212,49,-262
3.570061,571,472,16554,186,10,108,201,52,-242
3.580061,569,423,16502,167,12,143,182,54,-207
3.590063,554,409,16459,161,9,159,176,51,-191
3.600061,515,425,16395,153,5,174,168,47,-176
3.610060,489,411,16360,125,-9,199,140,33,-151
3.620062,456,424,16339,108,-19,209,123,23,-141
3.630060,457,428,16347,73,-36,220,88,6,-130
3.640060,449,429,16360,60,-41,223,75,1,-127
3.650061,453,472,16407,44,-48,226,59,-6,-124
3.660061,438,521,16440,34,-48,228,49,-6,-122
3.670060,387,602,16509,24,-50,230,39,-8,-120
3.680088,371,624,16505,0,-59,237,15,-17,-113
3.690062,380,573,16512,-12,-64,244,3,-22,-106
3.700060,390,509,16497,-24,-73,260,-9,-31,-90
3.710061,398,439,16485,-25,-74,271,-10,-32,-79
3.720061,409,307,16447,-20,-75,281,-5,-33,-69
3.730062,402,278,16424,-7,-80,304,8,-38,-46
3.740060,375,237,16370,-3,-82,315,12,-40,-35
3.750063,372,208,16350,-6,-93,334,9,-51,-16
3.760062,375,162,16349,-11,-100,342,4,-58,-8
3.770061,388,145,16363,-26,-112,355,-11,-70,5
3.780060,396,130,16368,-33,-113,360,-18,-71,10
3.790061,414,97,16381,-40,-112,363,-25,-70,13
3.800059,411,85,16401,-51,-100,366,-36,-58,16
3.810062,410,114,16482,-52,-89,365,-37,-47,15
3.820086,381,155,16550,-51,-60,360,-36,-18,10
3.830060,352,230,16605,-49,-42,357,-34,0,7
3.840061,297,439,16711,-42,-4,347,-27,38,-3
3.850061,281,554,16753,-40,11,340,-25,53,-10
3.860059,239,764,16805,-36,24,332,-21,66,-18
3.870061,222,853,16801,-30,40,314,-15,82,-36
3.880060,218,965,16727,-27,42,305,-12,84,-45
3.890061,233,1000,16655,-22,42,286,-7,84,-64
3.900060,239,1034,16588,-18,33,277,-3,75,-73
3.910060,238,1035,16463,-2,15,263,13,57,-87
3.920060,216,1058,16453,7,2,256,22,44,-94
3.930060,173,1062,16397,14,-7,254,29,35,-96
3.940059,149,1066,16402,21,-32,254,36,10,-96
3.950061,49,1082,16432,16,-43,260,31,-1,-90
3.960060,6,1080,16462,3,-64,281,18,-22,-69
3.970060,-20,1087,16481,-9,-72,295,6,-30,-55
3.980147,-23,1069,16506,-46,-83,329,-31,-41,-21
3.990103,6,1024,16507,-65,-85,348,-50,-43,-2
4.000139,104,929,16463,-81,-85,366,-66,-43,16
4.010107,152,887,16433,-106,-75,402,-91,-33,52
4.020094,216,819,16405,-115,-65,417,-100,-23,67
4.030093,212,813,16389,-131,-40,440,-116,2,90
4.040088,210,833,16380,-142,-26,448,-127,16,98
4.050078,180,878,16357,-154,-13,453,-139,29,103
4.060101,172,913,16339,-177,8,452,-162,50,102
4.070083,176,940,16313,-187,19,449,-172,61,99
4.080088,187,930,16280,-197,37,432,-182,79,82
4.090086,192,918,16234,-195,42,423,-180,84,73
4.100115,183,888,16122,-186,51,402,-171,93,52
4.110097,162,872,16067,-177,54,391,-162,96,41
4.120167,128,852,15969,-167,55,381,-152,97,31
4.130094,110,854,15922,-135,49,362,-120,91,12
4.140077,98,866,15854,-118,44,352,-103,86,2
4.150082,102,899,15841,-86,25,335,-71,67,-15
4.160059,99,917,15838,-69,15,327,-54,57,-23
4.170058,97,972,15847,-37,-5,316,-22,37,-34
4.180062,105,988,15850,-25,-13,312,-10,29,-38
4.190059,148,995,15833,-14,-19,309,1,23,-41
4.200066,163,1001,15822,7,-28,309,22,14,-41
4.210061,229,1024,15829,19,-31,309,34,11,-41
4.220067,254,1049,15840,39,-36,315,54,6,-35
4.230060,284,1074,15846,43,-36,317,58,6,-33
4.240061,328,1129,15855,40,-36,319,55,6,-31
4.250061,349,1156,15853,26,-33,321,41,9,-29
4.260101,353,1181,15871,18,-29,320,33,13,-30
4.270078,363,1209,15884,-6,-16,316,9,26,-34
4.280100,390,1200,15926,-20,-4,311,-5,38,-39
4.290093,389,1197,15954,-42,28,300,-27,70,-50
4.300091,377,1201,15979,-49,47,293,-34,89,-57
4.310060,304,1255,15993,-56,66,287,-41,108,-63
4.320058,267,1300,16024,-70,94,274,-55,136,-76
4.330061,234,1379,16026,-79,102,267,-64,144,-83
4.340061,231,1388,16017,-93,106,252,-78,148,-98
4.350064,252,1389,15994,-90,104,245,-75,146,-105
4.360061,327,1364,15968,-62,97,228,-47,139,-122
4.370061,356,1378,15973,-45,97,217,-30,139,-133
4.380061,385,1423,15997,-24,96,207,-9,138,-143
4.390061,385,1446,16014,17,92,180,32,134,-170
4.400060,424,1536,16065,35,90,166,50,132,-184
4.410060,439,1563,16086,63,87,134,78,129,-216
4.420060,467,1582,16119,77,84,119,92,126,-231
4.430060,555,1593,16163,91,81,106,106,123,-244
4.440061,595,1574,16174,115,78,85,130,120,-265
4.450060,658,1485,16213,131,78,78,146,120,-272
4.460060,672,1444,16238,163,84,67,178,126,-283
4.470060,672,1379,16319,181,92,64,196,134,-286
4.480059,643,1374,16359,221,108,64,236,150,-286
4.490061,601,1375,16406,237,117,65,252,159,-285
4.500060,508,1426,16468,247,125,68,262,167,-282
4.510065,467,1424,16485,244,142,69,259,184,-281
4.520060,381,1390,16502,238,150,68,253,192,-282
4.530060,349,1348,16497,230,163,63,245,205,-287
4.540060,325,1294,16447,227,170,58,242,212,-292
4.550060,310,1270,16407,220,181,48,235,223,-302
4.560060,276,1255,16359,216,181,42,231,223,-308
4.570060,233,1267,16293,211,178,36,226,220,-314
4.580061,215,1273,16263,198,159,26,213,201,-324
4.590060,180,1256,16217,191,144,21,206,186,-329
4.600060,185,1270,16216,183,108,16,198,150,-334
4.610061,208,1264,16218,177,93,13,192,135,-337
4.620060,255,1227,16255,184,57,9,199,99,-341
4.630059,278,1240,16280,193,40,6,208,82,-344
4.640060,348,1251,16312,198,27,6,213,69,-344
4.650061,380,1239,16317,207,2,4,222,44,-346
4.660060,465,1250,16320,212,-10,4,227,32,-346
4.670059,507,1232,16333,219,-30,2,234,12,-348
4.680079,550,1201,16326,224,-37,0,239,5,-350
4.690076,623,1171,16341,232,-43,-2,247,-1,-352
4.700061,638,1164,16355,256,-47,-8,271,-5,-358
4.710061,643,1170,16365,268,-46,-11,283,-4,-361
4.720060,639,1157,16368,291,-43,-20,306,-1,-370
4.730085,613,1152,16372,299,-42,-24,314,0,-374
4.740061,587,1138,16370,307,-43,-34,322,-1,-384
4.750060,561,1125,16362,309,-44,-37,324,-2,-387
4.760060,516,1108,16337,308,-46,-43,323,-4,-393
4.770060,487,1101,16332,294,-48,-56,309,-6,-406
4.780060,462,1053,16304,283,-50,-65,298,-8,-415
4.790060,456,1032,16284,263,-54,-83,278,-12,-433
4.800061,463,1001,16261,249,-55,-93,264,-13,-443
4.810064,462,984,16245,221,-60,-111,236,-18,-461
4.820061,459,981,16236,209,-64,-120,224,-22,-470
4.830060,477,1009,16229,194,-68,-127,209,-26,-477
4.840060,476,1017,16230,166,-80,-140,181,-38,-490
4.850060,501,1033,16240,157,-88,-143,172,-46,-493
4.860059,521,1053,16266,143,-95,-152,158,-53,-502
4.870060,535,1077,16291,139,-96,-154,154,-54,-504
4.880060,549,1104,16322,133,-99,-159,148,-57,-509
4.890060,577,1124,16336,127,-100,-160,142,-58,-510
4.900060,647,1136,16327,119,-101,-163,134,-59,-513
4.910060,677,1129,16319,104,-104,-168,119,-62,-518
4.920060,731,1104,16310,96,-105,-172,111,-63,-522
4.930059,742,1079,16303,80,-108,-175,95,-66,-525
4.940060,751,1057,16298,75,-109,-178,90,-67,-528
4.950060,780,1014,16300,70,-112,-180,85,-70,-530
4.960058,783,997,16307,55,-118,-184,70,-76,-534
4.970060,779,959,16378,49,-124,-186,64,-82,-536
4.980060,757,956,16445,32,-134,-191,47,-92,-541
4.990060,681,960,16589,19,-137,-195,34,-95,-545
5.000082,631,959,16666,-11,-142,-200,4,-100,-550
5.010061,578,983,16747,-25,-144,-202,-10,-102,-552
5.020059,479,1005,16894,-39,-146,-203,-24,-104,-553
5.030059,432,1022,16941,-64,-147,-205,-49,-105,-555
5.040060,408,1060,16981,-73,-148,-205,-58,-106,-555
5.050060,408,1065,16970,-88,-151,-204,-73,-109,-554
5.060058,418,1066,16945,-93,-154,-206,-78,-112,-556
5.070124,457,1110,16868,-108,-159,-212,-93,-117,-562
5.080083,476,1130,16827,-114,-163,-219,-99,-121,-569
5.090080,511,1206,16736,-120,-169,-227,-105,-127,-577
5.100061,518,1230,16687,-135,-187,-246,-120,-145,-596
5.110060,543,1271,16608,-144,-198,-254,-129,-156,-604
5.120060,546,1279,16570,-159,-225,-266,-144,-183,-616
5.130059,551,1267,16545,-163,-237,-271,-148,-195,-621
5.140059,506,1271,16503,-159,-258,-278,-144,-216,-628
5.150060,453,1271,16470,-153,-269,-280,-138,-227,-630
5.160058,342,1310,16434,-146,-278,-282,-131,-236,-632
5.170060,286,1351,16432,-134,-298,-282,-119,-256,-632
5.180060,164,1453,16414,-131,-309,-282,-116,-267,-632
5.190059,110,1490,16402,-127,-325,-283,-112,-283,-633
5.200059,68,1524,16399,-126,-329,-284,-111,-287,-634
5.210060,16,1616,16380,-126,-331,-286,-111,-289,-636
5.220059,-20,1668,16378,-131,-334,-291,-116,-292,-641
5.230059,-4,1793,16334,-138,-334,-296,-123,-292,-646
5.240058,52,1840,16286,-157,-332,-311,-142,-290,-661
5.250059,121,1906,16190,-172,-329,-320,-157,-287,-670
5.260071,173,1924,16111,-203,-324,-341,-188,-282,-691
5.270059,227,1929,16075,-215,-321,-352,-200,-279,-702
5.280060,357,1956,16008,-229,-317,-360,-214,-275,-710
5.290059,409,1937,16001,-252,-307,-373,-237,-265,-723
5.300097,491,1949,16078,-260,-300,-379,-245,-258,-729
5.310085,514,1944,16126,-269,-271,-396,-254,-229,-746
5.320059,506,1928,16183,-276,-254,-414,-261,-212,-764
5.330058,538,1946,16232,-285,-221,-448,-270,-179,-798
5.340057,555,1956,16262,-285,-205,-449,-270,-163,-799
5.350058,545,1956,16294,-281,-186,-436,-266,-144,-786
5.360059,519,1928,16299,-263,-152,-370,-248,-110,-720
5.370060,407,1867,16295,-251,-137,-326,-236,-95,-676
5.380059,335,1830,16258,-230,-114,-247,-215,-72,-597
5.390059,276,1754,16181,-218,-109,-225,-203,-67,-575
5.400060,220,1708,16054,-189,-113,-215,-174,-71,-565
5.410059,236,1730,15993,-173,-113,-223,-158,-71,-573
5.420059,249,1813,15957,-155,-114,-235,-140,-72,-585
5.430069,259,1882,15945,-109,-112,-267,-94,-70,-617
5.440061,193,2073,15945,-92,-110,-289,-77,-68,-639
5.450059,128,2188,15927,-64,-114,-329,-49,-72,-679
5.460057,80,2281,15914,-59,-119,-342,-44,-77,-692
5.470058,5,2385,15883,-59,-125,-350,-44,-83,-700
5.480059,-23,2389,15860,-48,-142,-347,-33,-100,-697
5.490059,-80,2359,15838,-33,-152,-338,-18,-110,-688
5.500061,-92,2335,15833,-3,-157,-306,12,-115,-656
5.510059,-83,2284,15818,10,-156,-292,25,-114,-642
5.520060,-78,2239,15786,30,-151,-273,45,-109,-623
5.530059,-78,2177,15753,40,-150,-271,55,-108,-621
5.540060,-67,2067,15766,52,-147,-274,67,-105,-624
5.550059,-67,2059,15796,79,-131,-277,94,-89,-627
5.560059,-68,2096,15861,87,-118,-277,102,-76,-627
5.570060,-56,2125,15927,88,-86,-274,103,-44,-624
5.580059,-30,2151,15967,80,-65,-270,95,-23,-620
5.590058,9,2158,16040,61,-18,-257,76,24,-607
5.600059,57,2150,16064,52,8,-247,67,50,-597
5.610057,139,2101,16088,43,35,-233,58,77,-583
5.620059,174,2090,16101,30,91,-201,45,133,-551
5.630058,187,2128,16094,28,112,-183,43,154,-533
5.640058,184,2149,16085,12,148,-148,27,190,-498
5.650058,180,2132,16073,1,161,-132,16,203,-482
5.660058,165,2086,16075,-12,173,-104,3,215,-454
5.670058,156,2052,16093,-17,178,-90,-2,220,-440
5.680060,116,1968,16142,-16,181,-76,-1,223,-426
5.690058,98,1940,16178,-2,181,-52,13,223,-402
5.700059,45,1929,16237,4,179,-39,19,221,-389
5.710059,9,1913,16256,19,167,-14,34,209,-364
5.720059,-7,1900,16277,27,158,-1,42,200,-351
5.730059,10,1809,16303,32,149,10,47,191,-340
5.740058,29,1728,16311,43,133,36,58,175,-314
5.750058,67,1556,16336,51,127,49,66,169,-301
5.760059,79,1463,16331,66,122,76,81,164,-274
5.770059,100,1308,16351,73,123,90,88,165,-260
5.780059,111,1245,16376,79,126,117,94,168,-233
5.790059,128,1201,16403,82,130,130,97,172,-220
5.800079,163,1167,16449,81,134,139,96,176,-211
5.810079,207,1163,16446,66,144,154,81,186,-196
5.820079,301,1152,16424,55,147,156,70,189,-194
5.830077,339,1157,16411,31,146,148,46,188,-202
5.840081,401,1154,16378,20,143,141,35,185,-209
5.850081,415,1145,16361,1,137,124,16,179,-226
5.860079,421,1139,16346,-5,133,117,10,175,-233
5.870080,400,1145,16351,-10,128,111,5,170,-239
5.880080,359,1144,16356,-15,117,102,0,159,-248
5.890080,280,1145,16374,-18,110,102,-3,152,-248
5.900086,242,1140,16406,-26,95,103,-11,137,-247
5.910087,146,1130,16474,-30,90,106,-15,132,-244
5.920086,101,1129,16515,-35,79,124,-20,121,-226
5.930093,78,1134,16547,-40,74,134,-25,116,-216
5.940086,57,1109,16594,-45,72,145,-30,114,-205
5.950085,52,1089,16620,-55,70,166,-40,112,-184
5.960087,56,1050,16629,-57,70,176,-42,112,-174
5.970086,68,1035,16628,-62,70,196,-47,112,-154
5.980085,87,1021,16625,-65,70,206,-50,112,-144
5.990086,85,990,16612,-74,66,223,-59,108,-127
6.000080,80,985,16610,-76,64,230,-61,106,-120
6.010081,40,944,16614,-79,63,236,-64,105,-114
6.020077,27,924,16615,-82,65,242,-67,107,-108
6.030077,-13,904,16564,-83,65,243,-68,107,-107
6.040081,-37,893,16515,-81,63,236,-66,105,-114
6.050081,-47,890,16476,-77,58,231,-62,100,-119
6.060080,-52,863,16400,-72,51,221,-57,93,-129
6.070081,-66,854,16382,-54,35,199,-39,77,-151
6.080081,-100,846,16336,-41,25,183,-26,67,-167
6.090081,-121,862,16308,-2,0,156,13,42,-194
6.100083,-171,910,16259,17,-15,144,32,27,-206
6.110086,-186,931,16245,54,-52,126,69,-10,-224
6.120086,-198,971,16251,73,-70,120,88,-28,-230
6.130087,-165,1041,16232,89,-87,115,104,-45,-235
6.140086,-132,1075,16217,116,-114,112,131,-72,-238
6.150085,-20,1117,16233,126,-124,116,141,-82,-234
6.160083,42,1133,16248,142,-126,125,157,-84,-225
6.170087,174,1170,16297,148,-122,130,163,-80,-220
6.180086,229,1186,16318,151,-106,145,166,-64,-205
6.190086,273,1220,16340,147,-94,155,162,-52,-195
6.200087,356,1292,16366,139,-80,164,154,-38,-186
6.210086,381,1335,16386,116,-54,182,131,-12,-168
6.220084,465,1372,16428,102,-42,191,117,0,-159
6.230108,508,1374,16429,69,-14,206,84,28,-144
6.240088,534,1369,16418,56,-1,213,71,41,-137
6.250090,577,1341,16377,31,21,219,46,63,-131
6.260137,588,1322,16341,21,29,223,36,71,-127
6.270107,596,1306,16259,12,36,226,27,78,-124
6.280088,597,1286,16213,-1,43,228,14,85,-122
6.290083,608,1268,16108,-8,44,226,7,86,-124
6.300177,601,1247,16088,-9,38,221,6,80,-129
6.310082,604,1235,16076,-4,32,218,11,74,-132
6.320081,541,1246,16086,0,27,215,15,69,-135
6.330077,484,1257,16111,14,14,215,29,56,-135
6.340080,366,1325,16192,26,3,218,41,45,-132
6.350077,302,1362,16233,44,-17,235,59,25,-115
6.360080,176,1448,16301,55,-30,246,70,12,-104
6.370080,144,1506,16336,73,-58,270,88,-16,-80
6.380079,142,1563,16342,77,-68,279,92,-26,-71
6.390080,123,1634,16287,79,-76,286,94,-34,-64
6.400079,128,1661,16233,81,-91,289,96,-49,-61
6.410094,128,1713,16158,79,-98,285,94,-56,-65
6.420125,132,1738,16094,64,-108,268,79,-66,-82
6.430087,92,1775,16009,54,-115,256,69,-73,-94
6.440089,68,1811,15978,19,-123,225,34,-81,-125
6.450086,60,1813,15970,-4,-125,209,11,-83,-141
6.460086,77,1812,15986,-27,-125,192,-12,-83,-158
6.470085,98,1785,16013,-73,-123,164,-58,-81,-186
6.480087,99,1729,16061,-90,-119,155,-75,-77,-195
6.490085,97,1683,16084,-108,-107,146,-93,-65,-204
6.500086,113,1665,16104,-111,-99,147,-96,-57,-203
6.510080,142,1635,16136,-106,-82,158,-91,-40,-192
6.520080,164,1627,16157,-99,-76,166,-84,-34,-184
6.530079,246,1609,16162,-92,-69,173,-77,-27,-177
6.540080,297,1615,16149,-77,-61,184,-62,-19,-166
6.550080,417,1600,16130,-67,-58,185,-52,-16,-165
6.560080,469,1576,16117,-46,-52,179,-31,-10,-171
6.570079,529,1559,16114,-30,-48,172,-15,-6,-178
6.580081,598,1548,16119,-13,-43,162,2,-1,-188
6.590080,614,1573,16114,18,-36,139,33,6,-211
6.600079,637,1626,16103,27,-33,125,42,9,-225
6.610085,639,1650,16110,38,-38,95,53,4,-255
6.620084,667,1675,16140,42,-43,78,57,-1,-272
6.630084,689,1673,16149,43,-47,44,58,-5,-306
6.640082,702,1654,16140,45,-49,28,60,-7,-322
6.650719,742,1611,16088,44,-50,0,59,-8,-350
6.660085,752,1576,16067,45,-51,-11,60,-9,-361
6.670084,730,1519,16102,49,-52,-22,64,-10,-372
6.680085,716,1510,16132,57,-43,-40,72,-1,-390
6.690087,706,1514,16161,61,-36,-46,76,6,-396
6.700087,693,1551,16181,75,-32,-55,90,10,-405
6.710079,677,1588,16176,75,-32,-57,90,10,-407
6.720081,692,1660,16165,74,-32,-57,89,10,-407
6.730092,711,1660,16174,75,-33,-51,90,9,-401
6.740119,766,1636,16170,77,-31,-44,92,11,-394
6.750109,830,1660,16179,104,-26,-40,119,16,-390
6.760082,1058,1761,16144,136,-38,-59,151,4,-409
6.770078,1068,1884,16085,136,-29,-82,151,13,-432
6.780084,979,1883,16049,115,-29,-92,130,13,-442
6.790082,818,1836,15972,107,-34,-102,122,8,-452
6.800085,793,1840,15936,104,-53,-118,119,-11,-468
6.810077,737,1847,15908,93,-53,-127,108,-11,-477
6.820081,696,1836,15900,73,-52,-135,88,-10,-485
6.830101,665,1870,15916,62,-51,-137,77,-9,-487
6.840107,625,1934,15925,43,-46,-139,58,-4,-489
6.850074,606,1958,15946,8,-41,-140,23,1,-490
6.860076,598,2035,16014,0,-40,-140,15,2,-490
6.870075,614,2083,16059,-22,-29,-139,-7,13,-489
6.880073,590,2149,16109,-28,-23,-139,-13,19,-489
6.890073,579,2191,16131,-24,-20,-136,-9,22,-486
6.900076,562,2255,16166,-23,-20,-135,-8,22,-485
6.910076,560,2345,16190,-30,-17,-133,-15,25,-483
6.920080,545,2343,16194,-47,-11,-126,-32,31,-476
6.930079,534,2341,16212,-47,-10,-121,-32,32,-471
6.940078,537,2341,16219,-40,-6,-113,-25,36,-463
6.950080,537,2343,16210,-36,-4,-111,-21,38,-461
6.960080,542,2364,16180,-24,-2,-107,-9,40,-457
6.970078,559,2375,16181,-19,-5,-104,-4,37,-454
6.980081,541,2387,16173,-15,-11,-102,0,31,-452
6.990076,542,2375,16173,-12,-26,-97,3,16,-447
7.000080,533,2383,16181,-12,-35,-94,3,7,-444
7.010086,534,2382,16195,-18,-49,-91,-3,-7,-441
7.020098,543,2358,16200,-20,-55,-89,-5,-13,-439
7.030079,545,2308,16234,-24,-61,-94,-9,-19,-444
7.040087,550,2270,16245,-24,-59,-99,-9,-17,-449
7.050106,523,2217,16261,-20,-56,-104,-5,-14,-454
7.060093,504,2201,16284,-5,-47,-117,10,-5,-467
7.070096,462,2177,16329,1,-42,-123,16,0,-473
7.080098,442,2154,16343,11,-33,-139,26,9,-489
7.090097,422,2134,16382,15,-28,-147,30,14,-497
7.100149,359,2109,16475,24,-24,-155,39,18,-505
7.110077,340,2118,16517,44,-13,-170,59,29,-520
7.120074,322,2129,16566,50,-7,-175,65,35,-525
7.130073,298,2125,16567,56,4,-185,71,46,-535
7.140074,281,2107,16558,59,8,-189,74,50,-539
7.150076,231,2073,16506,70,14,-196,85,56,-546
7.160072,210,2064,16474,77,14,-199,92,56,-549
7.170066,179,2076,16408,78,15,-200,93,57,-550
7.180075,158,2070,16379,77,15,-202,92,57,-552
7.190072,151,2063,16304,74,14,-201,89,56,-551
7.200076,155,2054,16266,63,14,-202,78,56,-552
7.210195,168,2047,16235,53,15,-203,68,57,-553
7.220106,194,2037,16151,30,11,-208,45,53,-558
7.230100,221,2021,16119,20,7,-211,35,49,-561
7.240137,285,1971,16048,14,2,-215,29,44,-565
7.250225,326,1959,16029,14,-12,-223,29,30,-573
7.260150,394,1936,16016,21,-20,-228,36,22,-578
7.270127,413,1926,16024,41,-37,-235,56,5,-585
7.280111,434,1919,16042,56,-47,-238,71,-5,-588
7.290111,444,1958,16076,90,-65,-245,105,-23,-595
7.300107,439,1974,16089,105,-70,-247,120,-28,-597
7.310117,421,1993,16105,120,-75,-249,135,-33,-599
7.320093,424,2006,16133,149,-78,-253,164,-36,-603
7.330101,442,2026,16128,159,-75,-256,174,-33,-606
7.340099,442,2020,16109,171,-65,-265,186,-23,-615
7.350084,446,2025,16090,174,-59,-272,189,-17,-622
7.360086,426,1988,16066,177,-53,-278,192,-11,-628
7.370088,394,1973,16064,179,-38,-290,194,4,-640
7.380082,302,1972,16069,180,-31,-296,195,11,-646
7.390084,261,1994,16076,170,-17,-306,185,25,-656
7.400112,212,1995,16074,160,-11,-308,175,31,-658
7.410110,113,1953,16086,138,-4,-305,153,38,-655
7.420113,66,1941,16116,128,0,-301,143,42,-651
7.430090,-21,1894,16155,118,3,-295,133,45,-645
7.440101,-56,1866,16166,102,10,-281,117,52,-631
7.450084,-109,1873,16171,95,15,-273,110,57,-623
7.460059,-120,1871,16176,82,21,-257,97,63,-607
7.470055,-134,1875,16190,78,22,-251,93,64,-601
7.480060,-130,1866,16207,76,23,-247,91,65,-597
7.490058,-127,1854,16211,73,22,-242,88,64,-592
7.500058,-92,1818,16211,76,20,-241,91,62,-591
7.510058,-66,1807,16218,85,15,-241,100,57,-591
7.520056,-13,1785,16228,87,12,-241,102,54,-591
7.530057,18,1767,16227,98,4,-241,113,46,-591
7.540057,51,1748,16220,103,0,-242,118,42,-592
7.550058,120,1715,16264,107,-3,-244,122,39,-594
7.560057,140,1715,16288,123,-3,-248,138,39,-598
7.570077,174,1727,16378,132,0,-250,147,42,-600
7.580058,192,1740,16415,149,10,-256,164,52,-606
7.590058,200,1745,16462,155,15,-259,170,57,-609
7.600057,193,1776,16593,164,27,-264,179,69,-614
7.610057,185,1783,16656,164,36,-267,179,78,-617
7.620057,164,1778,16782,159,45,-269,174,87,-619
7.630058,164,1765,16831,141,64,-271,156,106,-621
7.640055,178,1747,16895,132,73,-271,147,115,-621
7.650057,180,1757,16899,115,88,-268,130,130,-618
7.660058,192,1759,16885,106,92,-263,121,134,-613
7.670056,227,1771,16842,87,84,-252,102,126,-602
7.680057,239,1770,16825,70,73,-246,85,115,-596
7.690058,282,1744,16726,53,59,-240,68,101,-590
7.700057,304,1705,16687,30,21,-226,45,63,-576
7.710057,317,1639,16644,23,-2,-219,38,40,-569
7.720057,329,1611,16619,14,-47,-205,29,-5,-555
7.730057,333,1576,16604,10,-72,-199,25,-30,-549
7.740057,332,1487,16541,4,-96,-193,19,-54,-543
7.750057,326,1441,16511,-2,-136,-185,13,-94,-535
7.760063,302,1358,16477,1,-154,-183,16,-112,-533
7.770058,278,1341,16485,19,-176,-187,34,-134,-537
7.780057,188,1351,16501,27,-182,-191,42,-140,-541
7.790056,134,1377,16495,42,-189,-202,57,-147,-552
7.800056,79,1392,16485,47,-195,-208,62,-153,-558
7.810068,17,1402,16445,49,-201,-211,64,-159,-561
7.820065,12,1365,16425,55,-209,-212,70,-167,-562
7.830056,29,1303,16389,64,-211,-210,79,-169,-560
7.840054,51,1302,16356,94,-206,-204,109,-164,-554
7.850057,78,1332,16326,106,-199,-201,121,-157,-551
7.860056,112,1453,16243,109,-184,-195,124,-142,-545
7.870057,126,1501,16209,101,-178,-191,116,-136,-541
7.880057,152,1580,16149,88,-174,-186,103,-132,-536
7.890057,178,1606,16133,62,-172,-178,77,-130,-528
7.900056,251,1623,16097,49,-171,-172,64,-129,-522
7.910056,299,1618,16081,23,-166,-162,38,-124,-512
7.920057,341,1604,16087,12,-162,-157,27,-120,-507
7.930056,365,1590,16124,-10,-147,-149,5,-105,-499
7.940057,332,1580,16144,-22,-139,-144,-7,-97,-494
7.950057,256,1583,16150,-34,-131,-138,-19,-89,-488
7.960058,221,1582,16148,-68,-120,-123,-53,-78,-473
7.970057,164,1558,16127,-89,-117,-114,-74,-75,-464
7.980056,165,1537,16118,-120,-118,-92,-105,-76,-442
7.990057,186,1518,16095,-130,-120,-80,-115,-78,-430
8.000057,219,1506,16038,-139,-119,-68,-124,-77,-418
8.010055,213,1499,16009,-145,-119,-45,-130,-77,-395
8.020056,211,1548,15962,-145,-121,-36,-130,-79,-386
8.030059,226,1590,15963,-156,-128,-22,-141,-86,-372
8.040057,262,1647,15961,-162,-133,-18,-147,-91,-368
8.050058,291,1688,15980,-161,-144,-12,-146,-102,-362
8.060057,315,1721,16013,-155,-145,-12,-140,-103,-362
8.070056,305,1771,16066,-147,-143,-13,-132,-101,-363
8.080058,281,1803,16096,-123,-133,-21,-108,-91,-371
8.090056,225,1884,16145,-116,-125,-27,-101,-83,-377
8.100057,196,1894,16161,-107,-105,-45,-92,-63,-395
8.110055,161,1908,16180,-101,-94,-53,-86,-52,-403
8.120056,128,1901,16198,-92,-69,-71,-77,-27,-421
8.130055,111,1875,16194,-85,-57,-77,-70,-15,-427
8.140057,102,1798,16153,-78,-46,-84,-63,-4,-434
8.150056,114,1770,16130,-63,-27,-92,-48,15,-442
8.160056,105,1731,16090,-57,-19,-94,-42,23,-444
8.170056,99,1729,16096,-42,-10,-93,-27,32,-443
8.180056,63,1748,16127,-31,-9,-90,-16,33,-440
8.190057,4,1843,16185,-25,-9,-86,-10,33,-436
8.200056,-33,1890,16220,-18,-16,-77,-3,26,-427
8.210056,-67,2007,16287,-16,-23,-73,-1,19,-423
8.220119,-70,2063,16309,-20,-34,-66,-5,8,-416
8.230057,-61,2126,16326,-22,-39,-63,-7,3,-413
8.240054,-56,2154,16320,-21,-49,-60,-6,-7,-410
8.250057,-44,2184,16309,-21,-54,-60,-6,-12,-410
8.260056,-42,2224,16295,-21,-59,-61,-6,-17,-411
8.270056,-55,2253,16261,-21,-68,-61,-6,-26,-411
8.280056,-90,2294,16241,-20,-76,-61,-5,-34,-411
8.290056,-103,2344,16233,-27,-90,-57,-12,-48,-407
8.300057,-133,2369,16272,-33,-93,-54,-18,-51,-404
8.310056,-143,2389,16280,-39,-97,-49,-24,-55,-399
8.320078,-164,2402,16301,-41,-99,-44,-26,-57,-394
8.330058,-200,2415,16337,-41,-102,-40,-26,-60,-390
8.340056,-225,2435,16350,-39,-109,-31,-24,-67,-381
8.350056,-248,2471,16357,-39,-113,-24,-24,-71,-374
8.360058,-274,2483,16356,-39,-120,-6,-24,-78,-356
8.370057,-297,2485,16336,-39,-123,2,-24,-81,-348
8.380057,-278,2483,16308,-42,-123,18,-27,-81,-332
8.390156,-263,2474,16268,-44,-120,27,-29,-78,-323
8.400083,-223,2434,16135,-45,-116,34,-30,-74,-316
8.410077,-200,2424,16088,-43,-109,45,-28,-67,-305
8.420077,-139,2430,16018,-43,-102,49,-28,-60,-301
8.430063,-124,2446,16002,-51,-83,51,-36,-41,-299
8.440056,-110,2464,15996,-60,-72,50,-45,-30,-300
8.450054,-82,2471,15960,-73,-60,49,-58,-18,-301
8.460055,-81,2471,15939,-95,-36,45,-80,6,-305
8.470055,-35,2432,15913,-104,-26,48,-89,16,-302
8.480057,-2,2393,15914,-121,-4,54,-106,38,-296
8.490055,23,2295,15902,-125,5,62,-110,47,-288
8.500059,25,2241,15902,-123,25,82,-108,67,-268
8.510055,29,2196,15903,-121,36,95,-106,78,-255
8.520058,20,2113,15906,-117,46,109,-102,88,-241
8.530055,29,2105,15936,-104,58,140,-89,100,-210
8.540058,17,2127,15968,-96,64,155,-81,106,-195
8.550056,15,2144,15989,-88,79,180,-73,121,-170
8.560057,7,2156,16002,-87,88,187,-72,130,-163
8.570057,-13,2189,16021,-89,110,198,-74,152,-152
8.580058,-44,2204,16031,-88,122,199,-73,164,-151
8.590056,-77,2203,16036,-84,132,198,-69,174,-152
8.600058,-92,2207,16038,-84,154,193,-69,196,-157
8.610055,-108,2191,16065,-85,167,190,-70,209,-160
8.620019,-127,2189,16083,-77,187,186,-62,229,-164
8.630057,-142,2209,16114,-72,196,184,-57,238,-166
8.640056,-181,2264,16175,-69,212,180,-54,254,-170
8.650056,-193,2278,16188,-69,217,179,-54,259,-171
8.660058,-148,2241,16193,-71,221,178,-56,263,-172
8.670056,-98,2190,16191,-72,222,178,-57,264,-172
8.680057,60,2070,16231,-68,219,179,-53,261,-171
8.690056,129,2019,16260,-49,217,176,-34,259,-174
8.700057,196,1969,16298,-35,218,172,-20,260,-178
8.710056,320,1929,16408,-18,220,165,-3,262,-185
8.720058,382,1919,16460,14,224,152,29,266,-198
8.730060,481,1896,16586,25,228,146,40,270,-204
8.740057,540,1866,16604,41,230,136,56,272,-214
8.750056,606,1782,16709,49,230,132,64,272,-218
8.760057,639,1736,16767,70,232,128,85,274,-222
8.770056,667,1710,16813,85,235,129,100,277,-221
8.780057,731,1645,16828,99,237,130,114,279,-220
8.790056,756,1610,16798,120,233,135,135,275,-215
8.800059,822,1557,16696,126,227,138,141,269,-212
8.810060,844,1521,16643,130,204,139,145,246,-211
8.820058,849,1496,16608,131,192,137,146,234,-213
8.830058,817,1487,16623,131,170,126,146,212,-224
8.840056,791,1494,16650,131,159,120,146,201,-230
8.850054,719,1535,16678,129,149,115,144,191,-235
8.860056,678,1564,16692,129,117,106,144,159,-244
8.870056,573,1605,16780,129,99,104,144,141,-246
8.880057,530,1639,16825,132,67,101,147,109,-249
8.890056,495,1661,16847,131,54,103,146,96,-247
8.900057,438,1646,16825,125,30,114,140,72,-236
8.910056,415,1612,16798,126,14,122,141,56,-228
8.920058,446,1523,16701,128,-5,130,143,37,-220
8.930056,487,1483,16648,128,-45,151,143,-3,-199
8.940056,561,1408,16546,130,-66,162,145,-24,-188
8.950056,593,1402,16492,127,-108,180,142,-66,-170
8.960056,610,1387,16445,121,-127,187,136,-85,-163
8.970056,668,1364,16369,114,-148,193,129,-106,-157
8.980056,695,1365,16350,93,-182,197,108,-140,-153
8.990054,686,1346,16339,82,-195,197,97,-153,-153
9.000057,671,1345,16353,72,-210,189,87,-168,-161
9.010056,653,1359,16418,69,-208,184,84,-166,-166
9.020046,632,1359,16462,61,-193,170,76,-151,-180
9.030056,602,1340,16497,60,-181,164,75,-139,-186
9.040055,521,1334,16528,61,-170,160,76,-128,-190
9.050056,493,1315,16528,55,-143,153,70,-101,-197
9.060058,466,1264,16547,50,-128,151,65,-86,-199
9.070056,446,1248,16559,45,-97,152,60,-55,-198
9.080057,433,1249,16565,42,-82,155,57,-40,-195
9.090056,442,1270,16499,34,-67,171,49,-25,-179
9.100057,463,1287,16465,27,-65,181,42,-23,-169
9.110055,565,1334,16392,18,-64,193,33,-22,-157
9.120056,624,1333,16357,-1,-69,220,14,-27,-130
9.130054,774,1360,16294,-6,-73,233,9,-31,-117
9.140057,853,1383,16275,-17,-80,260,-2,-38,-90
9.150059,905,1415,16271,-22,-82,272,-7,-40,-78
9.160057,960,1505,16271,-39,-85,290,-24,-43,-60
9.170056,976,1551,16286,-53,-90,297,-38,-48,-53
9.180056,980,1624,16337,-70,-94,303,-55,-52,-47
9.190055,983,1633,16354,-102,-97,308,-87,-55,-42
9.200056,969,1592,16387,-109,-96,309,-94,-54,-41
9.210055,969,1592,16377,-114,-86,306,-99,-44,-44
9.220056,970,1578,16325,-116,-81,303,-101,-39,-47
9.230056,941,1565,16235,-117,-79,299,-102,-37,-51
9.240055,933,1574,16199,-113,-84,287,-98,-42,-63
9.250056,883,1598,16134,-114,-86,280,-99,-44,-70
9.260056,846,1594,16098,-110,-90,261,-95,-48,-89
9.270056,760,1657,16044,-105,-94,251,-90,-52,-99
9.280056,717,1689,16025,-98,-99,233,-83,-57,-117
9.290055,691,1713,16002,-97,-102,225,-82,-60,-125
9.300057,656,1715,15927,-97,-108,219,-82,-66,-131
9.310055,642,1703,15910,-99,-119,209,-84,-77,-141
9.320057,655,1674,15884,-99,-122,206,-84,-80,-144
9.330055,652,1660,15885,-97,-122,201,-82,-80,-149
9.340056,654,1656,15884,-97,-121,201,-82,-79,-149
9.350055,630,1644,15897,-97,-120,202,-82,-78,-148
9.360057,616,1651,15889,-96,-120,204,-81,-78,-146
9.370056,627,1660,15889,-96,-122,205,-81,-80,-145
9.380057,636,1659,15895,-96,-124,208,-81,-82,-142
9.390056,625,1619,15891,-98,-122,209,-83,-80,-141
9.400056,612,1614,15896,-88,-117,205,-73,-75,-145
9.410060,600,1627,15904,-82,-111,202,-67,-69,-148
9.420077,570,1653,15920,-72,-94,193,-57,-52,-157
9.430055,540,1651,15932,-64,-84,188,-49,-42,-162
9.440056,503,1670,15947,-54,-76,183,-39,-34,-167
9.450056,496,1694,15958,-32,-56,171,-17,-14,-179
9.460056,495,1722,15977,-22,-45,163,-7,-3,-187
9.470056,492,1742,15990,-2,-24,150,13,18,-200
9.480057,482,1771,16001,7,-14,142,22,28,-208
9.490056,496,1810,16019,16,-6,134,31,36,-216
9.500057,512,1830,16046,33,7,119,48,49,-231
9.510056,537,1891,16088,40,15,111,55,57,-239
9.520056,537,1902,16106,56,25,99,71,67,-251
9.530055,548,1944,16143,63,27,95,78,69,-255
9.540057,550,1965,16146,67,26,86,82,68,-264
9.550056,556,1978,16135,65,25,82,80,67,-268
9.560057,575,1973,16122,61,23,79,76,65,-271
9.570055,573,1966,16125,58,16,69,73,58,-281
9.580056,555,1980,16166,55,15,63,70,57,-287
9.590056,531,1999,16202,52,15,49,67,57,-301
9.600056,511,2032,16235,52,15,43,67,57,-307
9.610056,464,2100,16294,50,15,33,65,57,-317
9.620057,452,2138,16316,48,13,31,63,55,-319
9.630055,424,2216,16381,45,8,28,60,50,-322
9.640054,423,2247,16392,33,1,26,48,43,-324
9.650056,443,2265,16362,26,-3,26,41,39,-324
9.660056,445,2273,16337,22,-17,25,37,25,-325
9.670055,466,2289,16313,25,-25,24,40,17,-326
9.680071,523,2317,16274,24,-43,19,39,-1,-331
9.690073,539,2335,16221,22,-54,17,37,-12,-333
9.700057,558,2365,16162,22,-67,14,37,-25,-336
9.710056,556,2387,16165,15,-88,5,30,-46,-345
9.720056,553,2429,16201,11,-95,0,26,-53,-350
9.730063,551,2445,16234,0,-100,-11,15,-58,-361
9.740090,559,2460,16261,-5,-99,-16,10,-57,-366
9.750078,554,2497,16297,-8,-97,-22,7,-55,-372
9.760056,549,2534,16302,-13,-87,-32,2,-45,-382
9.770054,595,2557,16305,-16,-79,-38,-1,-37,-388
9.780055,597,2547,16315,-23,-64,-48,-8,-22,-398
9.790054,593,2517,16327,-19,-53,-54,-4,-11,-404
9.800057,566,2487,16322,-6,-31,-63,9,11,-413
9.810057,519,2455,16319,3,-23,-67,18,19,-417
9.820057,455,2432,16271,8,-17,-70,23,25,-420
9.830056,447,2400,16255,5,-9,-75,20,33,-425
9.840055,483,2294,16157,3,-8,-77,18,34,-427
9.850078,515,2235,16095,8,-10,-82,23,32,-432
9.860072,552,2158,16023,11,-13,-87,26,29,-437
9.870055,611,2025,15907,18,-20,-102,33,22,-452
9.880057,623,1977,15865,21,-27,-111,36,15,-461
9.890090,626,1908,15787,20,-35,-122,35,7,-472
9.900072,623,1877,15760,12,-53,-143,27,-11,-493
9.910054,624,1826,15781,9,-64,-156,24,-22,-506
9.920055,623,1803,15824,11,-78,-183,26,-36,-533
9.930055,615,1791,15883,16,-81,-198,31,-39,-548
9.940057,562,1831,15975,22,-82,-214,37,-40,-564
9.950055,521,1862,16001,30,-75,-247,45,-33,-597
9.960057,418,1904,16028,31,-69,-261,46,-27,-611
9.970055,372,1932,16045,42,-60,-287,57,-18,-637
9.980056,238,1975,16083,51,-54,-296,66,-12,-646
9.990055,167,2008,16090,72,-42,-312,87,0,-662
10.000070,112,2061,16086,83,-37,-318,98,5,-668
10.010054,15,2166,16067,90,-34,-324,105,8,-674
10.020057,-13,2213,16051,94,-28,-333,109,14,-683
10.030056,-40,2245,16029,92,-27,-337,107,15,-687
10.040055,-64,2265,16040,95,-28,-344,110,14,-694
10.050055,-88,2301,16073,100,-27,-347,115,15,-697
10.060055,-94,2321,16114,114,-21,-353,129,21,-703
10.070072,-131,2377,16144,118,-18,-355,133,24,-705
10.080083,-161,2437,16215,119,-18,-354,134,24,-704
10.090072,-162,2451,16228,114,-28,-346,129,14,-696
10.100075,-110,2469,16271,109,-35,-339,124,7,-689
10.110054,-89,2458,16298,107,-49,-320,122,-7,-670
10.120054,-72,2435,16308,108,-56,-309,123,-14,-659
10.130055,-17,2377,16322,115,-67,-282,130,-25,-632
10.140056,13,2341,16314,122,-72,-268,137,-30,-618
10.150057,28,2267,16318,128,-75,-253,143,-33,-603
10.160056,34,2249,16322,136,-78,-228,151,-36,-578
10.170055,55,2224,16353,133,-76,-217,148,-34,-567
10.180056,54,2201,16365,118,-67,-198,133,-25,-548
10.190055,64,2157,16369,111,-63,-190,126,-21,-540
10.200054,129,2073,16368,100,-58,-184,115,-16,-534
10.210055,166,2012,16366,76,-47,-172,91,-5,-522
10.220055,234,1910,16362,66,-38,-168,81,4,-518
10.230056,263,1881,16381,45,-20,-159,60,22,-509
10.240061,279,1806,16362,31,-12,-154,46,30,-504
10.250055,292,1774,16342,-5,-5,-144,10,37,-494
10.260075,309,1735,16326,-29,-4,-137,-14,38,-487
10.270054,360,1603,16296,-52,-7,-130,-37,35,-480
10.280056,396,1524,16304,-75,-15,-116,-60,27,-466
10.290054,468,1460,16320,-74,-18,-109,-59,24,-459
10.300055,482,1442,16320,-66,-23,-98,-51,19,-448
10.310054,468,1443,16339,-59,-29,-95,-44,13,-445
10.320054,433,1476,16397,-44,-40,-93,-29,2,-443
10.330055,394,1510,16468,-36,-43,-95,-21,-1,-445
10.340055,317,1548,16615,-25,-45,-100,-10,-3,-450
10.350054,293,1573,16651,-4,-35,-117,11,7,-467
10.360055,233,1611,16687,2,-24,-129,17,18,-479
10.370054,209,1610,16666,18,0,-160,33,42,-510
10.380054,184,1597,16636,26,10,-178,41,52,-528
10.390055,137,1579,16530,37,27,-210,52,69,-560
10.400055,131,1554,16453,38,34,-224,53,76,-574
10.410058,129,1461,16271,38,36,-236,53,78,-586
10.420055,132,1412,16198,44,31,-250,59,73,-600
10.430058,175,1318,16151,49,24,-253,64,66,-603
10.440054,183,1283,16150,64,7,-250,79,49,-600
10.450054,192,1275,16167,73,-3,-245,88,39,-595
10.460055,193,1290,16211,83,-15,-238,98,27,-588
10.470054,186,1319,16247,102,-45,-221,117,-3,-571
10.480056,185,1414,16374,112,-59,-211,127,-17,-561
10.490054,202,1461,16431,126,-84,-194,141,-42,-544
10.500055,255,1523,16495,133,-92,-189,148,-50,-539
10.510055,294,1531,16494,158,-102,-184,173,-60,-534
10.520055,313,1532,16505,177,-103,-184,192,-61,-534
10.530054,361,1545,16499,195,-100,-186,210,-58,-536
10.540054,359,1558,16484,228,-95,-190,243,-53,-540
10.550087,329,1612,16430,239,-98,-189,254,-56,-539
10.560167,329,1631,16394,247,-113,-180,262,-71,-530
10.570105,361,1626,16336,246,-125,-175,261,-83,-525
10.580093,402,1613,16320,240,-144,-162,255,-102,-512
10.590074,451,1591,16314,239,-150,-155,254,-108,-505
10.600087,527,1575,16297,239,-153,-149,254,-111,-499
10.610085,549,1593,16295,238,-157,-139,253,-115,-489
10.620085,592,1674,16340,234,-159,-135,249,-117,-485
10.630081,602,1740,16390,211,-162,-132,226,-120,-482
10.640082,601,1811,16430,194,-163,-131,209,-121,-481
10.650081,613,1914,16496,157,-165,-127,172,-123,-477
10.660080,616,1941,16503,137,-165,-125,152,-123,-475
10.670150,646,1944,16495,121,-165,-122,136,-123,-472
10.680126,654,1939,16471,93,-164,-115,108,-122,-465
10.690093,650,1891,16386,82,-162,-111,97,-120,-461
10.700103,642,1899,16359,67,-162,-106,82,-120,-456
10.710092,620,1925,16350,59,-163,-103,74,-121,-453
10.720057,482,2004,16351,52,-166,-100,67,-124,-450
10.730054,429,2053,16356,28,-178,-92,43,-136,-442
10.740054,331,2128,16362,12,-185,-88,27,-143,-438
10.750052,299,2159,16356,-20,-204,-79,-5,-162,-429
10.760055,292,2193,16303,-33,-214,-74,-18,-172,-424
10.770054,306,2193,16278,-51,-235,-67,-36,-193,-417
10.780054,340,2196,16263,-54,-244,-65,-39,-202,-415
10.790054,390,2229,16212,-58,-253,-64,-43,-211,-414
10.800053,394,2252,16189,-66,-268,-63,-51,-226,-413
10.810055,374,2326,16147,-73,-276,-64,-58,-234,-414
10.820054,363,2351,16151,-99,-290,-64,-84,-248,-414
10.830060,356,2377,16162,-114,-294,-64,-99,-252,-414
10.840053,377,2366,16158,-139,-293,-64,-124,-251,-414
10.850054,406,2364,16146,-148,-287,-63,-133,-245,-413
10.860054,453,2345,16123,-155,-279,-64,-140,-237,-414
10.870053,452,2351,16122,-169,-258,-65,-154,-216,-415
10.880054,429,2374,16123,-177,-245,-63,-162,-203,-413
10.890054,417,2380,16112,-196,-220,-59,-181,-178,-409
10.900054,413,2387,16091,-207,-207,-56,-192,-165,-406
10.910054,436,2378,16050,-229,-177,-55,-214,-135,-405
10.920054,450,2376,16019,-238,-159,-57,-223,-117,-407
10.930053,452,2359,15992,-243,-141,-60,-228,-99,-410
10.940054,447,2387,15989,-242,-104,-69,-227,-62,-419
10.950054,400,2428,15976,-242,-87,-74,-227,-45,-424
10.960054,368,2432,15976,-239,-60,-85,-224,-18,-435
10.970053,342,2450,15987,-238,-50,-92,-223,-8,-442
10.980053,310,2453,15997,-239,-39,-99,-224,3,-449
10.990054,287,2433,15989,-239,-16,-111,-224,26,-461
11.000053,255,2395,15951,-233,-6,-117,-218,36,-467
11.010054,242,2389,15944,-215,13,-124,-200,55,-474
11.020055,189,2410,15961,-205,21,-126,-190,63,-476
11.030055,155,2439,15983,-182,32,-124,-167,74,-474
11.040054,134,2479,16010,-174,37,-120,-159,79,-470
11.050055,103,2530,16050,-166,42,-116,-151,84,-466
11.060055,88,2544,16056,-146,48,-102,-131,90,-452
11.070052,100,2559,16064,-135,48,-92,-120,90,-442
11.080054,103,2563,16070,-114,49,-71,-99,91,-421
11.090054,93,2568,16075,-103,48,-62,-88,90,-412
11.100054,103,2589,16056,-90,46,-44,-75,88,-394
11.110054,99,2598,16040,-90,45,-38,-75,87,-388
11.120054,92,2617,16022,-91,42,-33,-76,84,-383
11.130054,103,2619,16035,-91,36,-28,-76,78,-378
11.140054,85,2610,16059,-92,36,-28,-77,78,-378
11.150053,76,2621,16069,-87,33,-30,-72,75,-380
11.160054,74,2639,16078,-82,30,-31,-67,72,-381
11.170054,77,2701,16123,-70,24,-29,-55,66,-379
11.180053,75,2728,16154,-63,20,-26,-48,62,-376
11.190054,92,2788,16212,-53,12,-21,-38,54,-371
11.200053,105,2827,16231,-29,-3,-9,-14,39,-359
11.210052,113,2899,16262,-13,-10,-4,2,32,-354
11.220054,125,2940,16265,22,-24,5,37,18,-345
11.230069,147,2980,16264,37,-29,8,52,13,-342
11.240054,178,3006,16215,51,-35,11,66,7,-339
11.250054,190,3025,16175,81,-51,12,96,-9,-338
11.260053,214,3021,16098,97,-61,9,112,-19,-341
11.270054,210,3010,16073,123,-78,1,138,-36,-349
11.280054,185,3018,16043,131,-84,-4,146,-42,-354
11.290053,154,3018,16029,139,-90,-13,154,-48,-363
11.300052,137,3006,16009,137,-91,-15,152,-49,-365
11.310054,117,2983,15945,133,-92,-17,148,-50,-367
11.320053,118,2957,15914,119,-95,-13,134,-53,-363
11.330054,143,2863,15843,108,-97,-7,123,-55,-357
11.340054,174,2804,15813,87,-100,10,102,-58,-340
11.350054,209,2748,15794,78,-99,20,93,-57,-330
11.360055,276,2684,15810,62,-85,40,77,-43,-310
11.370054,312,2680,15827,52,-72,48,67,-30,-302
11.380054,384,2651,15896,39,-59,56,54,-17,-294
11.390054,432,2641,15936,11,-28,65,26,14,-285
11.400054,544,2572,16021,-1,-9,67,14,33,-283
11.410067,609,2527,16060,-14,29,71,1,71,-279
11.420070,681,2491,16095,-16,50,73,-1,92,-277
11.430058,795,2420,16152,-12,92,77,3,134,-273
11.440053,842,2387,16162,-7,112,79,8,154,-271
11.450053,927,2304,16210,-2,130,81,13,172,-269
11.460054,952,2260,16247,12,163,86,27,205,-264
11.470054,1000,2210,16320,22,178,89,37,220,-261
11.480054,1033,2186,16352,45,203,90,60,245,-260
11.490053,1052,2168,16385,57,212,90,72,254,-260
11.500053,1040,2197,16392,68,218,89,83,260,-261
11.510054,1035,2206,16391,80,223,85,95,265,-265
11.520053,1015,2218,16364,83,220,83,98,262,-267
11.530053,1005,2216,16352,77,207,75,92,249,-275
11.540053,964,2146,16293,71,200,69,86,242,-281
11.550053,929,2110,16267,60,181,60,75,223,-290
11.560054,889,2082,16240,55,168,57,70,210,-293
11.570053,799,2042,16204,48,156,56,63,198,-294
11.580053,753,2030,16214,32,121,58,47,163,-292
11.590054,697,2056,16280,24,101,59,39,143,-291
11.600054,681,2087,16332,8,65,68,23,107,-282
11.610053,661,2102,16384,2,52,74,17,94,-276
11.620052,658,2158,16478,-12,37,88,3,79,-262
11.630064,661,2173,16537,-25,34,96,-10,76,-254
11.640052,675,2171,16611,-37,32,104,-22,74,-246
11.650053,688,2162,16627,-54,33,124,-39,75,-226
11.660053,722,2138,16623,-59,37,132,-44,79,-218
11.670053,734,2137,16609,-57,42,151,-42,84,-199
11.680053,757,2152,16597,-58,44,157,-43,86,-193
11.690053,788,2174,16521,-63,46,164,-48,88,-186
11.700062,797,2159,16475,-73,49,173,-58,91,-177
11.710068,831,2087,16421,-74,48,175,-59,90,-175
11.720080,840,2067,16403,-65,47,177,-50,89,-173
11.730066,815,2040,16378,-55,45,179,-40,87,-171
11.740055,779,2038,16348,-32,32,184,-17,74,-166
11.750053,745,2037,16325,-22,19,191,-7,61,-159
11.760052,698,1995,16309,-12,2,200,3,44,-150
11.770052,710,1966,16300,7,-34,221,22,8,-129
11.780053,717,1889,16294,20,-52,233,35,-10,-117
11.790053,725,1849,16265,50,-85,256,65,-43,-94
11.800052,735,1822,16219,68,-101,267,83,-59,-83
11.810053,751,1830,16201,101,-131,288,116,-89,-62
11.820053,777,1841,16183,114,-144,296,129,-102,-54
11.830058,828,1873,16173,124,-156,303,139,-114,-47
11.840054,860,1887,16167,137,-177,314,152,-135,-36
11.850053,887,1908,16143,143,-185,317,158,-143,-33
11.860053,903,1913,16150,152,-197,322,167,-155,-28
11.870053,913,1920,16157,155,-199,322,170,-157,-28
11.880053,944,1919,16206,155,-200,323,170,-158,-27
11.890054,960,1916,16202,153,-201,323,168,-159,-27
11.900054,998,1893,16182,150,-201,322,165,-159,-28
11.910053,1020,1881,16172,140,-198,322,155,-156,-28
11.920053,1030,1854,16117,134,-196,321,149,-154,-29
11.930053,1033,1846,16112,126,-191,315,141,-149,-35
11.940054,1033,1858,16112,124,-184,311,139,-142,-39
11.950054,997,1883,16126,118,-176,307,133,-134,-43
11.960053,961,1891,16135,104,-153,300,119,-111,-50
11.970052,891,1907,16148,96,-142,297,111,-100,-53
11.980053,875,1885,16148,77,-117,299,92,-75,-51
11.990052,878,1814,16150,72,-103,301,87,-61,-49
12.000052,895,1795,16164,78,-71,308,93,-29,-42
12.010053,884,1798,16181,85,-53,314,100,-11,-36
12.020053,864,1855,16211,89,-35,321,104,7,-29
12.030055,867,1867,16236,88,-2,333,103,40,-17
12.040051,885,1886,16280,81,13,338,96,55,-12
12.050061,898,1881,16296,61,47,343,76,89,-7
12.060058,956,1828,16291,53,63,344,68,105,-6
12.070060,986,1813,16279,38,93,342,53,135,-8
12.080054,1018,1790,16268,31,106,340,46,148,-10
12.090051,1047,1768,16272,24,115,338,39,157,-12
12.100053,1068,1755,16268,7,130,331,22,172,-19
12.110053,1077,1722,16231,-3,135,326,12,177,-24
12.120053,1091,1685,16214,-22,134,318,-7,176,-32
12.130053,1109,1641,16194,-28,130,312,-13,172,-38
12.140053,1145,1583,16194,-28,122,300,-13,164,-50
12.150053,1147,1587,16204,-25,120,292,-10,162,-58
12.160052,1098,1619,16191,-24,119,280,-9,161,-70
12.170053,1054,1639,16196,-31,115,251,-16,157,-99
12.180061,961,1698,16234,-37,112,235,-22,154,-115
12.190053,928,1709,16237,-52,108,198,-37,150,-152
12.200057,908,1725,16229,-59,108,181,-44,150,-169
12.210053,902,1728,16181,-62,107,163,-47,149,-187
12.220062,890,1735,16156,-60,104,130,-45,146,-220
12.230058,858,1838,16142,-54,101,114,-39,143,-236
12.240051,854,1909,16124,-52,95,85,-37,137,-265
12.250053,843,2068,16105,-55,89,75,-40,131,-275
12.260051,867,2129,16097,-65,65,59,-50,107,-291
12.270052,888,2180,16090,-69,52,55,-54,94,-295
12.280053,927,2261,16086,-70,34,53,-55,76,-297
12.290053,950,2308,16099,-58,-1,52,-43,41,-298
12.300052,949,2434,16120,-52,-16,53,-37,26,-297
12.310052,934,2496,16120,-49,-51,56,-34,-9,-294
12.320071,868,2564,16103,-53,-68,58,-38,-26,-292
12.330074,859,2567,16092,-64,-106,58,-49,-64,-292
12.340071,861,2555,16078,-70,-121,58,-55,-79,-292
12.350074,867,2518,16041,-72,-134,56,-57,-92,-294
12.360076,861,2501,16036,-78,-148,49,-63,-106,-301
12.370071,832,2494,16036,-84,-150,46,-69,-108,-304
12.380074,815,2486,16044,-97,-145,39,-82,-103,-311
12.390073,758,2485,16095,-99,-139,37,-84,-97,-313
12.400074,737,2517,16129,-97,-124,30,-82,-82,-320
12.410074,721,2553,16163,-102,-115,25,-87,-73,-325
12.420079,680,2585,16210,-111,-104,20,-96,-62,-330
12.430075,676,2587,16234,-122,-91,11,-107,-49,-339
12.440077,709,2563,16232,-127,-86,8,-112,-44,-342
12.450080,722,2547,16216,-135,-79,5,-120,-37,-345
12.460080,743,2521,16185,-137,-79,4,-122,-37,-346
12.470080,785,2463,16113,-132,-79,3,-117,-37,-347
12.480081,808,2443,16096,-124,-80,3,-109,-38,-347
12.490079,832,2463,16102,-111,-82,1,-96,-40,-349
12.500080,841,2505,16105,-93,-83,-2,-78,-41,-352
12.510079,868,2571,16138,-90,-84,-4,-75,-42,-354
12.520080,863,2595,16166,-83,-90,-9,-68,-48,-359
12.530080,866,2611,16201,-75,-92,-12,-60,-50,-362
12.540079,909,2622,16231,-57,-93,-16,-42,-51,-366
12.550080,935,2617,16219,-46,-91,-20,-31,-49,-370
12.560080,971,2584,16153,-34,-89,-23,-19,-47,-373
12.570105,982,2563,16119,0,-86,-29,15,-44,-379
12.580082,981,2549,16080,18,-84,-33,33,-42,-383
12.590081,970,2568,16053,52,-83,-41,67,-41,-391
12.600080,958,2583,16020,65,-82,-47,80,-40,-397
12.610079,935,2604,15972,78,-84,-54,93,-42,-404
12.620080,919,2614,15949,102,-91,-69,117,-49,-419
12.630075,890,2625,15884,112,-94,-79,127,-52,-429
12.640076,875,2624,15860,130,-98,-104,145,-56,-454
12.650077,849,2617,15833,140,-98,-118,155,-56,-468
12.660080,818,2631,15820,156,-95,-150,171,-53,-500
12.670075,780,2635,15811,165,-96,-168,180,-54,-518
12.680080,718,2675,15841,173,-98,-186,188,-56,-536
12.690076,706,2679,15877,180,-98,-226,195,-56,-576
12.700079,660,2658,15954,186,-95,-246,201,-53,-596
12.710080,648,2644,15994,209,-87,-284,224,-45,-634
12.720081,636,2642,16031,218,-79,-302,233,-37,-652
12.730079,551,2617,16077,230,-65,-333,245,-23,-683
12.740079,507,2621,16084,234,-60,-345,249,-18,-695
12.750080,442,2597,16083,236,-58,-356,251,-16,-706
12.760080,446,2566,16067,236,-59,-369,251,-17,-719
12.770080,466,2539,16020,236,-60,-372,251,-18,-722
12.780080,491,2539,16007,229,-70,-377,244,-28,-727
12.790079,538,2538,15973,219,-75,-381,234,-33,-731
12.800076,629,2524,15881,189,-90,-393,204,-48,-743
12.810078,673,2503,15871,175,-100,-400,190,-58,-750
12.820076,761,2451,15869,162,-108,-410,177,-66,-760
12.830077,776,2450,15913,151,-123,-432,166,-81,-782
12.840074,816,2498,15977,146,-127,-445,161,-85,-795
12.850079,812,2522,16012,122,-135,-473,137,-93,-823
12.860079,790,2536,16048,111,-140,-486,126,-98,-836
12.870098,750,2577,16159,102,-142,-499,117,-100,-849
12.880085,726,2609,16218,87,-135,-526,102,-93,-876
12.890077,659,2667,16280,81,-125,-539,96,-83,-889
12.900079,638,2699,16281,69,-105,-565,84,-63,-915
12.910080,578,2750,16244,65,-95,-575,80,-53,-925
12.920072,537,2789,16210,61,-78,-596,76,-36,-946
12.930073,510,2831,16201,63,-71,-604,78,-29,-954
12.940073,393,2946,16200,64,-64,-614,79,-22,-964
12.950073,306,2995,16194,55,-46,-628,70,-4,-978
12.960075,129,3059,16150,45,-43,-635,60,-1,-985
12.970073,68,3080,16130,15,-43,-643,30,-1,-993
12.980073,13,3096,16105,-1,-46,-644,14,-4,-994
12.990073,-41,3089,16073,-23,-58,-641,-8,-16,-991
13.000073,-35,3067,16064,-31,-62,-638,-16,-20,-988
13.010074,-31,3060,16084,-38,-64,-635,-23,-22,-985
13.020180,-29,3064,16118,-50,-66,-624,-35,-24,-974
13.030077,-4,3092,16217,-55,-66,-616,-40,-24,-966
13.040077,5,3123,16262,-67,-73,-591,-52,-31,-941
13.050093,37,3143,16292,-76,-76,-575,-61,-34,-925
13.060082,151,3110,16306,-98,-86,-539,-83,-44,-889
13.070081,235,3067,16294,-100,-93,-518,-85,-51,-868
13.080081,423,2984,16263,-100,-100,-499,-85,-58,-849
13.090080,523,2935,16245,-82,-117,-462,-67,-75,-812
13.100080,698,2875,16192,-67,-126,-446,-52,-84,-796
13.110080,752,2862,16190,-32,-145,-420,-17,-103,-770
13.120250,797,2846,16187,-15,-153,-411,0,-111,-761
13.130072,831,2845,16229,1,-159,-403,16,-117,-753
13.140074,838,2842,16261,24,-167,-395,39,-125,-745
13.150072,798,2805,16329,32,-165,-394,47,-123,-744
13.160074,773,2772,16360,43,-150,-399,58,-108,-749
13.170073,749,2757,16371,49,-137,-400,64,-95,-750
13.180072,675,2740,16355,52,-115,-402,67,-73,-752
13.190073,645,2727,16349,50,-107,-402,65,-65,-752
13.200073,663,2705,16271,40,-100,-402,55,-58,-752
13.210073,690,2665,16213,13,-87,-400,28,-45,-750
13.220073,787,2565,16104,3,-84,-399,18,-42,-749
13.230073,840,2540,16081,1,-84,-398,16,-42,-748
13.240077,864,2524,16067,4,-87,-398,19,-45,-748
13.250079,897,2519,16061,1,-99,-397,16,-57,-747
13.260087,894,2536,16101,-6,-107,-394,9,-65,-744
13.270082,853,2544,16225,-17,-115,-391,-2,-73,-741
13.280076,817,2517,16299,-39,-125,-382,-24,-83,-732
13.290079,746,2463,16420,-43,-125,-376,-28,-83,-726
13.300079,699,2439,16449,-46,-108,-365,-31,-66,-715
13.310076,641,2395,16454,-46,-94,-360,-31,-52,-710
13.320079,522,2319,16423,-44,-66,-353,-29,-24,-703
13.330076,509,2284,16409,-50,-50,-350,-35,-8,-700
13.340106,506,2184,16322,-58,-33,-349,-43,9,-699
13.350099,493,2138,16272,-69,-6,-352,-54,36,-702
13.360080,528,2017,16150,-70,4,-354,-55,46,-704
13.370079,557,1959,16100,-62,16,-363,-47,58,-713
13.380079,589,1928,16054,-54,16,-368,-39,58,-718
13.390080,622,1922,15990,-46,12,-375,-31,54,-725
13.400077,636,1927,15980,-35,-8,-389,-20,34,-739
13.410076,705,1926,16001,-32,-23,-398,-17,19,-748
13.420079,739,1928,16022,-21,-49,-416,-6,-7,-766
13.430065,758,1921,16041,-12,-60,-425,3,-18,-775
13.440059,836,1872,16092,16,-78,-437,31,-36,-787
13.450062,869,1865,16128,32,-84,-444,47,-42,-794
13.460063,886,1859,16239,46,-86,-449,61,-44,-799
13.470060,855,1885,16297,75,-80,-460,90,-38,-810
13.480064,738,1972,16378,83,-74,-463,98,-32,-813
13.490062,683,2004,16384,80,-64,-465,95,-22,-815
13.500063,665,2020,16378,74,-59,-465,89,-17,-815
13.510063,627,2008,16323,71,-54,-463,86,-12,-813
13.520062,614,1994,16286,74,-45,-460,89,-3,-810
13.530076,599,2026,16224,82,-42,-460,97,0,-810
13.540079,591,2083,16180,83,-39,-466,98,3,-816
13.550075,555,2159,16111,78,-42,-472,93,0,-822
13.560075,544,2193,16090,68,-57,-482,83,-15,-832
13.570079,566,2219,16087,63,-64,-487,78,-22,-837
13.580079,581,2281,16126,59,-69,-493,74,-27,-843
13.590079,574,2331,16137,51,-84,-501,66,-42,-851
13.600078,526,2410,16170,44,-91,-502,59,-49,-852
13.610079,502,2463,16212,25,-101,-500,40,-59,-850
13.620079,431,2503,16285,13,-102,-495,28,-60,-845
13.630081,416,2524,16310,-4,-101,-477,11,-59,-827
13.640073,402,2544,16309,-13,-98,-465,2,-56,-815
13.650080,412,2544,16256,-23,-94,-452,-8,-52,-802
13.660079,455,2534,16208,-39,-88,-423,-24,-46,-773
13.670079,562,2491,16147,-43,-84,-407,-28,-42,-757
13.680079,610,2491,16121,-40,-78,-378,-25,-36,-728
13.690079,690,2545,16081,-35,-79,-365,-20,-37,-715
13.700080,719,2595,16071,-33,-90,-339,-18,-48,-689
13.710079,771,2639,16064,-39,-99,-329,-24,-57,-679
13.720078,880,2667,16072,-48,-107,-321,-33,-65,-671
13.730108,924,2674,16093,-58,-118,-306,-43,-76,-656
13.740078,986,2677,16134,-57,-119,-301,-42,-77,-651
13.750079,1000,2687,16144,-47,-115,-295,-32,-73,-645
13.760078,986,2702,16150,-41,-112,-296,-26,-70,-646
13.770080,924,2732,16173,-30,-107,-290,-15,-65,-640
13.780079,883,2744,16195,-28,-109,-278,-13,-67,-628
13.790078,916,2871,16201,-26,-109,-254,-11,-67,-604
13.800076,924,2984,16191,-24,-117,-198,-9,-75,-548
13.810104,873,2977,16201,-36,-114,-179,-21,-72,-529
13.820153,826,2936,16200,-67,-102,-146,-52,-60,-496
13.830174,769,2889,16198,-75,-100,-133,-60,-58,-483
13.840214,731,2825,16222,-84,-89,-112,-69,-47,-462
13.850131,723,2792,16223,-87,-81,-105,-72,-39,-455
13.860107,637,2799,16275,-87,-76,-100,-72,-34,-450
13.870100,581,2814,16277,-95,-62,-93,-80,-20,-443
13.880111,471,2814,16327,-97,-61,-89,-82,-19,-439
13.890108,448,2818,16329,-95,-68,-79,-80,-26,-429
13.900107,450,2810,16332,-95,-71,-75,-80,-29,-425
13.910110,471,2727,16266,-95,-73,-70,-80,-31,-420
13.920105,490,2676,16229,-73,-78,-60,-58,-36,-410
13.930110,519,2643,16194,-54,-81,-56,-39,-39,-406
13.940078,523,2654,16164,-23,-82,-47,-8,-40,-397
13.950073,526,2656,16129,-12,-83,-43,3,-41,-393
13.960078,530,2677,16056,-4,-88,-40,11,-46,-390
13.970080,540,2673,16031,5,-98,-35,20,-56,-385
13.980080,564,2648,15990,7,-103,-33,22,-61,-383
13.990119,576,2635,15988,11,-104,-31,26,-62,-381
14.000179,600,2625,15988,10,-101,-29,25,-59,-379
14.010089,588,2625,15999,13,-89,-22,28,-47,-372
14.020097,586,2625,16000,14,-82,-16,29,-40,-366
14.030087,576,2678,16060,14,-77,-9,29,-35,-359
14.040050,550,2719,16086,6,-65,9,21,-23,-341
14.050052,525,2774,16103,2,-59,21,17,-17,-329
14.060049,529,2790,16118,4,-53,48,19,-11,-302
14.070051,537,2824,16135,7,-50,61,22,-8,-289
14.080050,534,2907,16148,12,-42,88,27,0,-262
14.090051,517,2926,16154,16,-41,102,31,1,-248
14.100052,508,2969,16160,20,-39,114,35,3,-236
14.110051,495,2991,16159,23,-36,140,38,6,-210
14.120051,458,3007,16148,26,-35,152,41,7,-198
14.130051,445,3018,16160,29,-33,174,44,9,-176
14.140051,433,3050,16190,26,-29,184,41,13,-166
14.150051,374,3089,16238,13,-20,202,28,22,-148
14.160051,338,3118,16261,4,-17,212,19,25,-138
14.170052,289,3164,16284,-8,-14,221,7,28,-129
14.180051,267,3146,16296,-41,-9,241,-26,33,-109
14.190052,260,3086,16293,-54,-8,253,-39,34,-97
14.200050,281,3071,16282,-71,-7,277,-56,35,-73
14.210051,291,3053,16276,-78,-8,290,-63,34,-60
14.220050,300,3037,16251,-85,-11,304,-70,31,-46
14.230056,308,3033,16248,-99,-18,329,-84,24,-21
14.240050,318,3012,16268,-108,-23,341,-93,19,-9
14.250050,312,2996,16274,-123,-34,362,-108,8,12
14.260051,297,2950,16278,-126,-39,372,-111,3,22
14.270050,295,2942,16288,-128,-47,391,-113,-5,41
14.280051,288,2929,16287,-128,-50,402,-113,-8,52
14.290050,253,2951,16288,-127,-55,415,-112,-13,65
14.300051,228,2954,16271,-134,-72,440,-119,-30,90
14.310050,203,2914,16222,-140,-82,453,-125,-40,103
14.320050,200,2882,16198,-147,-101,482,-132,-59,132
14.330051,198,2843,16177,-146,-107,493,-131,-65,143
14.340051,212,2789,16146,-138,-109,512,-123,-67,162
14.350050,198,2773,16137,-133,-108,519,-118,-66,169
14.360052,159,2766,16155,-129,-105,524,-114,-63,174
14.370050,126,2764,16167,-127,-97,533,-112,-55,183
14.380050,112,2720,16192,-128,-93,537,-113,-51,187
14.390050,119,2688,16212,-124,-85,544,-109,-43,194
14.400051,127,2653,16213,-118,-77,545,-103,-35,195
14.410051,185,2570,16202,-92,-54,546,-77,-12,196
14.420050,225,2550,16200,-74,-40,546,-59,2,196
14.430053,313,2553,16205,-55,-24,544,-40,18,194
14.440050,358,2572,16186,-23,7,538,-8,49,188
14.450050,472,2607,16133,-10,20,534,5,62,184
14.460050,533,2620,16103,4,44,522,19,86,172
14.470051,605,2617,16062,8,56,515,23,98,165
14.480051,686,2572,15990,17,65,508,32,107,158
14.490051,722,2573,15972,45,81,495,60,123,145
14.500050,733,2575,15933,57,87,489,72,129,139
14.510050,705,2568,15920,74,99,482,89,141,132
14.520050,608,2572,15905,80,102,480,95,144,130
14.530051,559,2596,15909,83,111,475,98,153,125
14.540050,512,2609,15922,77,116,471,92,158,121
14.550050,439,2626,15936,72,123,466,87,165,116
14.560050,409,2640,15921,54,136,454,69,178,104
14.570050,367,2638,15888,39,143,446,54,185,96
14.580050,345,2621,15875,8,159,428,23,201,78
14.590051,334,2597,15856,-7,164,418,8,206,68
14.600050,356,2544,15786,-38,170,401,-23,212,51
14.610050,400,2520,15747,-50,169,395,-35,211,45
14.620050,523,2494,15694,-57,166,388,-42,208,38
14.630053,590,2482,15694,-58,156,376,-43,198,26
14.640051,722,2455,15722,-57,152,371,-42,194,21
14.650051,782,2445,15753,-38,141,364,-23,183,14
14.660051,833,2442,15797,-23,136,362,-8,178,12
14.670049,922,2483,15890,5,132,359,20,174,9
14.680057,941,2504,15951,19,132,360,34,174,10
14.690055,1000,2564,16053,33,133,360,48,175,10
14.700050,1006,2594,16097,57,135,359,72,177,9
14.710050,1051,2631,16127,65,138,358,80,180,8
14.720050,1085,2631,16121,76,147,350,91,189,0
14.730065,1105,2627,16099,83,151,347,98,193,-3
14.740052,1173,2611,16072,86,154,340,101,196,-10
14.750052,1174,2601,16052,88,157,327,103,199,-23
14.760050,1199,2566,16002,87,157,320,102,199,-30
14.770049,1192,2563,15993,83,153,309,98,195,-41
14.780050,1167,2554,16007,78,148,306,93,190,-44
14.790050,1162,2556,16022,65,134,302,80,176,-48
14.800049,1168,2566,16054,58,127,302,73,169,-48
14.810053,1202,2541,16110,50,121,304,65,163,-46
14.820049,1216,2522,16135,41,110,312,56,152,-38
14.830054,1234,2484,16212,42,105,319,57,147,-31
14.840048,1259,2465,16258,46,100,336,61,142,-14
14.850050,1273,2457,16294,45,101,347,60,143,-3
14.860050,1282,2391,16337,43,104,363,58,146,13
14.870051,1293,2346,16351,42,107,370,57,149,20
14.880050,1296,2245,16369,41,114,377,56,156,27
14.890049,1303,2200,16368,41,125,389,56,167,39
14.900050,1299,2161,16355,39,131,393,54,173,43
14.910050,1293,2129,16333,24,143,399,39,185,49
14.920072,1287,2098,16318,15,147,399,30,189,49
14.930051,1281,2019,16296,0,146,396,15,188,46
14.940051,1298,1995,16291,-7,144,394,8,186,44
14.950051,1299,1942,16318,-11,141,391,4,183,41
14.960051,1312,1931,16337,-12,131,386,3,173,36
14.970050,1314,1951,16391,-12,126,382,3,168,32
14.980050,1307,1949,16446,-12,114,373,3,156,23
14.990069,1288,1951,16497,-9,109,368,6,151,18
15.000079,1254,1974,16577,-5,103,363,10,145,13
15.010069,1236,1977,16598,5,90,349,20,132,-1
15.020084,1189,1989,16622,12,80,340,27,122,-10
15.030055,1153,1992,16619,21,61,322,36,103,-28
15.040048,1085,2000,16606,27,48,314,42,90,-36
15.050055,1050,1998,16569,35,17,295,50,59,-55
15.060051,1019,1999,16529,37,0,286,52,42,-64
15.070052,936,1996,16473,38,-17,275,53,25,-75
15.080049,891,2002,16458,41,-51,256,56,-9,-94
15.090050,813,2043,16442,44,-68,247,59,-26,-103
15.100068,791,2068,16444,43,-102,234,58,-60,-116
15.110049,786,2109,16449,41,-119,229,56,-77,-121
15.120075,802,2214,16442,26,-149,222,41,-107,-128
15.130077,808,2261,16451,16,-163,218,31,-121,-132
15.140076,828,2329,16471,7,-176,214,22,-134,-136
15.150078,840,2370,16472,-12,-196,206,3,-154,-144
15.160053,826,2417,16440,-20,-205,202,-5,-163,-148
15.170049,832,2434,16408,-33,-218,195,-18,-176,-155
15.180050,843,2439,16374,-39,-224,191,-24,-182,-159
15.190051,869,2468,16294,-45,-227,189,-30,-185,-161
15.200049,883,2479,16236,-58,-237,187,-43,-195,-163
15.210051,949,2472,16128,-64,-243,183,-49,-201,-167
15.220050,973,2465,16079,-74,-250,179,-59,-208,-171
15.230054,1036,2474,15990,-76,-253,174,-61,-211,-176
15.240048,1043,2477,15950,-79,-256,162,-64,-214,-188
15.250050,1061,2484,15909,-83,-255,154,-68,-213,-196
15.260069,1101,2480,15828,-87,-253,144,-72,-211,-206
15.270050,1112,2479,15799,-91,-247,127,-76,-205,-223
15.280050,1098,2458,15767,-90,-242,118,-75,-200,-232
15.290051,1086,2442,15760,-87,-224,101,-72,-182,-249
15.300050,1078,2395,15715,-87,-213,92,-72,-171,-258
15.310049,1075,2358,15680,-99,-185,73,-84,-143,-277
15.320050,1075,2308,15638,-108,-171,63,-93,-129,-287
15.330050,1094,2193,15561,-114,-157,54,-99,-115,-296
15.340049,1093,2145,15556,-123,-127,31,-108,-85,-319
15.350049,1072,2105,15579,-123,-110,18,-108,-68,-332
15.360051,1042,2107,15592,-124,-66,-12,-109,-24,-362
15.370050,1002,2138,15614,-128,-42,-28,-113,0,-378
15.380050,921,2197,15666,-137,0,-56,-122,42,-406
15.390050,890,2218,15706,-142,19,-70,-127,61,-420
15.400048,877,2266,15772,-146,38,-82,-131,80,-432
15.410049,873,2271,15812,-146,69,-100,-131,111,-450
15.420049,860,2298,15884,-137,83,-102,-122,125,-452
15.430053,850,2334,15935,-107,106,-107,-92,148,-457
15.440048,816,2401,16001,-89,118,-107,-74,160,-457
15.450050,746,2558,16075,-73,127,-106,-58,169,-456
15.460050,706,2651,16099,-53,137,-103,-38,179,-453
15.470049,691,2795,16079,-52,136,-102,-37,178,-452
15.480050,723,2818,16043,-68,132,-104,-53,174,-454
15.490050,865,2764,15936,-81,127,-111,-66,169,-461
15.500051,941,2700,15921,-94,119,-132,-79,161,-482
15.510051,1035,2637,15885,-90,119,-145,-75,161,-495
15.520049,1100,2561,15893,-82,120,-157,-67,162,-507
15.530050,1122,2563,15906,-73,123,-179,-58,165,-529
15.540050,1090,2527,16004,-78,120,-188,-63,162,-538
15.550050,1048,2507,16074,-94,101,-196,-79,143,-546
15.560049,1023,2497,16148,-100,91,-196,-85,133,-546
15.570049,1021,2462,16324,-109,79,-191,-94,121,-541
15.580050,1025,2438,16382,-111,76,-188,-96,118,-538
15.590050,1042,2394,16444,-110,74,-185,-95,116,-535
15.600049,1049,2379,16435,-107,67,-178,-92,109,-528
15.610050,1061,2342,16380,-104,61,-176,-89,103,-526
15.620050,1071,2340,16355,-106,48,-176,-91,90,-526
15.630052,1066,2333,16322,-111,40,-178,-96,82,-528
15.640047,1039,2279,16267,-113,14,-186,-98,56,-536
15.650049,1017,2265,16247,-112,-5,-190,-97,37,-540
15.660050,984,2239,16200,-114,-25,-196,-99,17,-546
15.670049,962,2201,16188,-123,-70,-213,-108,-28,-563
15.680049,886,2134,16234,-121,-95,-222,-106,-53,-572
15.690049,837,2109,16309,-103,-145,-242,-88,-103,-592
15.700050,791,2100,16377,-91,-163,-253,-76,-121,-603
15.710048,648,2090,16511,-77,-178,-264,-62,-136,-614
15.720050,567,2100,16603,-40,-201,-287,-25,-159,-637
15.730049,403,2176,16805,-21,-206,-298,-6,-164,-648
15.740050,315,2217,16875,6,-201,-317,21,-159,-667
15.750050,188,2265,16902,10,-192,-326,25,-150,-676
15.760049,150,2241,16851,3,-163,-338,18,-121,-688
15.770050,138,2193,16776,0,-146,-341,15,-104,-691
15.780049,164,2060,16607,-2,-125,-342,13,-83,-692
15.790050,179,2014,16522,5,-77,-337,20,-35,-687
15.800048,213,1987,16336,7,-53,-331,22,-11,-681
15.810053,219,1983,16262,-3,-19,-307,12,23,-657
15.820049,213,1997,16219,-16,-9,-291,-1,33,-641
15.830053,207,2002,16165,-52,-1,-248,-37,41,-598
15.840048,223,1981,16169,-69,-2,-226,-54,40,-576
15.850048,244,1941,16198,-81,-5,-202,-66,37,-552
15.860049,243,1918,16214,-96,-11,-157,-81,31,-507
15.870048,216,1917,16226,-102,-13,-135,-87,29,-485
15.880048,193,1900,16211,-116,-15,-97,-101,27,-447
15.890060,165,1903,16209,-125,-17,-82,-110,25,-432
15.900056,127,1910,16200,-134,-18,-56,-119,24,-406
15.910050,122,1932,16194,-136,-16,-47,-121,26,-397
15.920049,117,1971,16150,-136,-12,-40,-121,30,-390
15.930049,101,1991,16125,-137,0,-30,-122,42,-380
15.940050,47,2008,16077,-139,5,-26,-124,47,-376
15.950049,38,1983,16051,-141,15,-18,-126,57,-368
15.960050,37,1938,16032,-142,20,-12,-127,62,-362
15.970049,28,1825,16039,-139,24,-4,-124,66,-354
15.980049,36,1770,16044,-128,36,17,-113,78,-333
15.990049,74,1721,16085,-125,43,30,-110,85,-320
16.000050,91,1694,16094,-127,50,66,-112,92,-284
16.010049,132,1635,16145,-129,52,88,-114,94,-262
16.020049,145,1605,16202,-128,56,139,-113,98,-211
16.030053,165,1578,16267,-119,61,168,-104,103,-182
16.040048,183,1584,16440,-107,67,197,-92,109,-153
16.050049,191,1615,16517,-88,91,254,-73,133,-96
16.060050,176,1707,16589,-84,103,280,-69,145,-70
16.070050,153,1752,16605,-81,121,324,-66,163,-26
16.080049,141,1799,16600,-81,126,341,-66,168,-9
16.090049,111,1883,16551,-85,131,370,-70,173,20
16.100049,102,1900,16487,-90,129,380,-75,171,30
16.110048,92,1874,16301,-97,122,389,-82,164,39
16.120049,87,1839,16199,-111,100,399,-96,142,49
16.130049,50,1752,16063,-119,85,401,-104,127,51
16.140049,18,1721,16037,-130,50,396,-115,92,46
16.150049,-13,1697,16040,-138,31,389,-123,73,39
16.160048,-73,1713,16027,-183,0,368,-168,42,18
16.170048,-118,1691,16040,-210,-16,356,-195,26,6
16.180049,-176,1635,16115,-234,-33,346,-219,9,-4
16.190049,-189,1610,16177,-275,-60,333,-260,-18,-17
16.200049,-208,1541,16313,-289,-68,331,-274,-26,-19
16.210049,-198,1501,16370,-306,-67,339,-291,-25,-11
16.220049,-170,1466,16441,-307,-55,346,-292,-13,-4
16.230067,-69,1430,16546,-305,-36,353,-290,6,3
16.240078,-4,1433,16597,-287,13,372,-272,55,22
16.250063,153,1490,16638,-271,39,380,-256,81,30
16.260062,240,1531,16623,-248,91,393,-233,133,43
16.270055,423,1622,16527,-239,111,396,-224,153,46
16.280050,527,1655,16462,-226,138,395,-211,180,45
16.290048,642,1656,16408,-220,147,390,-205,189,40
16.300048,875,1625,16227,-212,151,384,-197,193,34
16.310049,965,1587,16108,-190,153,364,-175,195,14
16.320048,1072,1489,15907,-177,149,352,-162,191,2
16.330048,1084,1443,15821,-151,133,325,-136,175,-25
16.340050,1072,1411,15755,-141,122,308,-126,164,-42
16.350047,1026,1345,15655,-130,96,283,-115,138,-67
16.360051,976,1290,15633,-126,81,271,-111,123,-79
16.370048,885,1191,15660,-117,68,260,-102,110,-90
16.380050,810,1161,15697,-100,51,245,-85,93,-105
16.390049,665,1139,15793,-96,47,237,-81,89,-113
16.400050,599,1137,15837,-92,54,222,-77,96,-128
16.410327,470,1169,15924,-89,64,213,-74,106,-137
16.420259,425,1193,15961,-80,93,193,-65,135,-157
16.430050,393,1219,15984,-75,111,181,-60,153,-169
16.440048,351,1268,16026,-74,130,165,-59,172,-185
16.450048,329,1268,16036,-75,173,131,-60,215,-219
16.460048,294,1256,16083,-72,194,111,-57,236,-239
16.470047,258,1251,16101,-56,232,74,-41,274,-276
16.480050,224,1250,16108,-50,248,59,-35,290,-291
16.490050,165,1247,16138,-46,261,45,-31,303,-305
16.500049,151,1232,16150,-39,273,34,-24,315,-316
16.510048,136,1210,16215,-36,275,33,-21,317,-317
16.520049,176,1197,16243,-33,273,38,-18,315,-312
16.530048,247,1159,16286,-36,271,43,-21,313,-307
16.540049,259,1142,16318,-35,260,55,-20,302,-295
16.550048,287,1142,16356,-32,257,61,-17,299,-289
16.560049,308,1133,16461,-30,251,66,-15,293,-284
16.570049,317,1167,16504,-25,242,77,-10,284,-273
16.580049,289,1235,16629,-23,238,82,-8,280,-268
16.590047,249,1269,16682,-26,225,88,-11,267,-262
16.600049,211,1319,16706,-30,218,88,-15,260,-262
16.610061,149,1342,16705,-45,199,85,-30,241,-265
16.620049,118,1333,16696,-52,189,80,-37,231,-270
16.630052,54,1302,16682,-53,181,74,-38,223,-276
16.640048,27,1300,16674,-50,161,55,-35,203,-295
16.650048,-70,1325,16644,-48,150,46,-33,192,-304
16.660050,-112,1350,16595,-53,118,29,-38,160,-321
16.670048,-162,1372,16560,-62,98,23,-47,140,-327
16.680057,-249,1373,16517,-68,52,15,-53,94,-335
16.690081,-251,1381,16496,-71,31,14,-56,73,-336
16.700070,-267,1360,16447,-71,13,15,-56,55,-335
16.710063,-273,1342,16429,-67,-22,17,-52,20,-333
16.720056,-268,1354,16417,-63,-39,19,-48,3,-331
16.730049,-250,1359,16413,-64,-59,18,-49,-17,-332
16.740048,-222,1366,16406,-66,-65,17,-51,-23,-333
16.750048,-196,1327,16396,-65,-69,17,-50,-27,-333
16.760049,-181,1331,16382,-52,-74,21,-37,-32,-329
16.770049,-160,1348,16384,-47,-75,23,-32,-33,-327
16.780049,-155,1355,16384,-45,-67,24,-30,-25,-326
16.790049,-176,1315,16401,-47,-59,23,-32,-17,-327
16.800049,-192,1278,16410,-42,-37,16,-27,5,-334
16.810059,-221,1255,16391,-32,-29,14,-17,13,-336
16.820048,-315,1239,16356,-20,-21,10,-5,21,-340
16.830049,-367,1246,16338,-6,-18,6,9,24,-344
16.840048,-457,1224,16295,-4,-22,6,11,20,-344
16.850049,-483,1201,16291,0,-39,7,15,3,-343
16.860048,-478,1188,16269,0,-47,6,15,-5,-344
16.870049,-430,1152,16221,-13,-51,0,2,-9,-350
16.880049,-419,1142,16208,-18,-53,-3,-3,-11,-353
16.890049,-425,1133,16206,-22,-53,-7,-7,-11,-357
16.900047,-422,1134,16210,-38,-50,-15,-23,-8,-365
16.910049,-412,1166,16241,-47,-48,-20,-32,-6,-370
16.920049,-384,1159,16256,-77,-40,-29,-62,2,-379
16.930049,-346,1156,16271,-94,-35,-35,-79,7,-385
16.940048,-280,1110,16323,-109,-32,-41,-94,10,-391
16.950047,-250,1108,16345,-129,-24,-53,-114,18,-403
16.960049,-209,1082,16364,-134,-19,-57,-119,23,-407
16.970048,-203,1070,16382,-134,-13,-62,-119,29,-412
16.980047,-184,1068,16377,-135,-13,-63,-120,29,-413
16.990047,-191,1059,16387,-138,-16,-63,-123,26,-413
17.000049,-192,1049,16407,-136,-18,-62,-121,24,-412
17.010053,-181,1033,16408,-133,-19,-61,-118,23,-411
17.020048,-190,1036,16402,-116,-22,-57,-101,20,-407
17.030048,-219,1040,16385,-106,-26,-53,-91,16,-403
17.040047,-242,1054,16387,-89,-32,-47,-74,10,-397
17.050065,-303,1077,16354,-86,-34,-43,-71,8,-393
17.060066,-335,1073,16338,-81,-42,-37,-66,0,-387
17.070062,-349,1089,16313,-82,-45,-34,-67,-3,-384
17.080086,-343,1076,16270,-84,-46,-32,-69,-4,-382
17.090058,-341,1062,16272,-85,-49,-33,-70,-7,-383
17.100048,-323,1071,16271,-85,-50,-34,-70,-8,-384
17.110049,-319,1068,16281,-88,-50,-36,-73,-8,-386
17.120049,-319,1063,16281,-88,-50,-39,-73,-8,-389
17.130048,-308,1056,16277,-93,-48,-40,-78,-6,-390
17.140057,-313,1057,16282,-96,-45,-41,-81,-3,-391
17.150142,-300,1039,16295,-99,-44,-43,-84,-2,-393
17.160145,-276,1052,16291,-104,-40,-48,-89,2,-398
17.170086,-231,1041,16293,-107,-37,-51,-92,5,-401
17.180086,-208,1027,16282,-107,-34,-53,-92,8,-403
17.190075,-184,1006,16289,-101,-33,-52,-86,9,-402
17.200067,-141,992,16289,-83,-31,-50,-68,11,-400
17.210069,-131,986,16281,-72,-32,-47,-57,10,-397
17.220082,-122,992,16265,-62,-33,-47,-47,9,-397
17.230071,-117,983,16259,-47,-36,-45,-32,6,-395
17.240075,-118,961,16255,-39,-37,-43,-24,5,-393
17.250083,-110,952,16257,-22,-37,-39,-7,5,-389
17.260076,-109,937,16256,-13,-36,-38,2,6,-388
17.270172,-128,915,16240,-5,-33,-35,10,9,-385
17.280104,-142,900,16234,9,-29,-30,24,13,-380
17.290081,-171,897,16225,14,-28,-27,29,14,-377
17.300090,-188,898,16218,23,-25,-21,38,17,-371
17.310074,-209,931,16217,26,-25,-17,41,17,-367
17.320049,-216,934,16210,25,-22,-7,40,20,-357
17.330047,-230,942,16203,23,-22,-1,38,20,-351
17.340047,-234,952,16243,21,-23,3,36,19,-347
17.350046,-236,959,16269,24,-22,17,39,20,-333
17.360048,-236,1002,16324,26,-21,24,41,21,-326
17.370049,-230,1026,16345,25,-18,38,40,24,-312
17.380048,-237,1069,16364,21,-17,43,36,25,-307
17.390048,-238,1107,16386,5,-18,51,20,24,-299
17.400048,-235,1108,16409,-2,-17,54,13,25,-296
17.410048,-203,1103,16412,-9,-18,56,6,24,-294
17.420048,-189,1104,16403,-22,-16,63,-7,26,-287
17.430048,-167,1102,16406,-27,-15,66,-12,27,-284
17.440047,-158,1098,16407,-37,-15,70,-22,27,-280
17.450046,-143,1083,16409,-42,-14,74,-27,28,-276
17.460047,-137,1075,16429,-46,-14,75,-31,28,-275
17.470048,-144,1058,16450,-53,-14,79,-38,28,-271
17.480049,-182,1068,16481,-56,-16,82,-41,26,-268
17.490048,-201,1073,16487,-65,-21,88,-50,21,-262
17.500048,-222,1005,16488,-71,-26,91,-56,16,-259
17.510047,-233,964,16474,-78,-36,97,-63,6,-253
17.520050,-234,933,16464,-79,-40,100,-64,2,-250
17.530046,-248,854,16427,-78,-44,102,-63,-2,-248
17.540048,-256,830,16419,-71,-54,101,-56,-12,-249
17.550120,-271,792,16391,-68,-60,100,-53,-18,-250
17.560048,-281,774,16372,-64,-75,94,-49,-33,-256
17.570069,-280,735,16359,-61,-83,92,-46,-41,-258
17.580049,-272,678,16343,-57,-92,85,-42,-50,-265
17.590049,-263,653,16344,-55,-96,82,-40,-54,-268
17.600048,-257,600,16356,-51,-100,79,-36,-58,-271
17.610047,-259,609,16354,-45,-107,70,-30,-65,-280
17.620047,-247,597,16329,-44,-107,65,-29,-65,-285
17.630048,-238,591,16324,-37,-109,53,-22,-67,-297
17.640047,-223,601,16336,-35,-107,45,-20,-65,-305
17.650048,-205,616,16311,-28,-101,30,-13,-59,-320
17.660048,-205,634,16291,-21,-100,24,-6,-58,-326
17.670048,-213,672,16264,-16,-98,17,-1,-56,-333
17.680047,-213,678,16239,-8,-97,2,7,-55,-348
17.690048,-226,702,16232,-4,-97,-4,11,-55,-354
17.700049,-226,722,16220,3,-93,-18,18,-51,-368
17.710047,-226,721,16209,7,-91,-25,22,-49,-375
17.720047,-228,719,16183,11,-89,-32,26,-47,-382
17.730046,-223,709,16186,18,-85,-42,33,-43,-392
17.740047,-219,722,16217,17,-84,-46,32,-42,-396
17.750047,-219,730,16245,14,-79,-52,29,-37,-402
17.760046,-205,754,16277,11,-76,-54,26,-34,-404
17.770047,-208,776,16287,6,-71,-56,21,-29,-406
17.780047,-202,783,16298,1,-68,-57,16,-26,-407
17.790047,-173,821,16338,-3,-66,-59,12,-24,-409
17.800046,-150,832,16349,-12,-62,-59,3,-20,-409
17.810056,-121,875,16346,-15,-61,-59,0,-19,-409
17.820046,-99,887,16340,-21,-56,-57,-6,-14,-407
17.830047,-81,915,16325,-25,-55,-56,-10,-13,-406
17.840047,-60,936,16331,-35,-53,-55,-20,-11,-405
17.850047,-55,947,16336,-36,-52,-54,-21,-10,-404
17.860048,-46,976,16332,-38,-52,-53,-23,-10,-403
17.870047,-44,987,16335,-41,-50,-52,-26,-8,-402
17.880048,-66,1014,16338,-44,-49,-52,-29,-7,-402
17.890047,-74,1020,16338,-49,-46,-50,-34,-4,-400
17.900046,-89,1005,16331,-50,-45,-48,-35,-3,-398
17.910047,-107,987,16334,-51,-44,-42,-36,-2,-392
17.920045,-116,980,16327,-50,-44,-38,-35,-2,-388
17.930047,-118,968,16341,-50,-44,-34,-35,-2,-384
17.940046,-114,958,16346,-50,-45,-27,-35,-3,-377
17.950046,-116,945,16335,-48,-45,-24,-33,-3,-374
17.960046,-109,939,16327,-48,-49,-22,-33,-7,-372
17.970047,-98,914,16318,-50,-50,-22,-35,-8,-372
17.980046,-101,868,16285,-51,-51,-22,-36,-9,-372
17.990047,-81,843,16275,-49,-53,-26,-34,-11,-376
18.000046,-80,806,16255,-49,-54,-28,-34,-12,-378
18.010047,-77,791,16247,-42,-53,-31,-27,-11,-381
18.020046,-88,794,16239,-39,-52,-32,-24,-10,-382
18.030047,-88,808,16239,-31,-52,-31,-16,-10,-381
18.040046,-96,819,16255,-28,-51,-31,-13,-9,-381
18.050046,-110,835,16270,-23,-48,-30,-8,-6,-380
18.060049,-117,849,16266,-18,-43,-27,-3,-1,-377
18.070051,-122,857,16269,-15,-42,-26,0,0,-376
18.080047,-121,867,16259,-2,-42,-21,13,0,-371
18.090050,-114,869,16254,2,-41,-20,17,1,-370
18.100046,-110,884,16247,16,-37,-17,31,5,-367
18.110047,-107,889,16238,22,-36,-16,37,6,-366
18.120046,-100,920,16239,24,-34,-14,39,8,-364
18.130047,-113,935,16244,28,-31,-12,43,11,-362
18.140046,-118,946,16257,29,-30,-9,44,12,-359
18.150047,-131,950,16261,25,-26,-4,40,16,-354
18.160047,-137,955,16277,23,-25,-2,38,17,-352
18.170047,-125,966,16290,15,-21,3,30,21,-347
18.180046,-128,972,16283,9,-18,7,24,24,-343
18.190048,-144,933,16317,5,-16,10,20,26,-340
18.200046,-140,921,16332,-1,-12,15,14,30,-335
18.210047,-122,905,16346,-5,-9,16,10,33,-334
18.220046,-134,897,16351,-14,-6,22,1,36,-328
18.230047,-135,901,16361,-20,-5,24,-5,37,-326
18.240046,-144,892,16394,-27,-3,25,-12,39,-325
18.250047,-154,890,16406,-36,-4,28,-21,38,-322
18.260046,-153,893,16412,-40,-6,30,-25,36,-320
18.270046,-143,894,16419,-47,-11,33,-32,31,-317
18.280061,-136,874,16419,-50,-15,35,-35,27,-315
18.290048,-131,851,16417,-54,-22,36,-39,20,-314
18.300046,-123,844,16420,-56,-27,37,-41,15,-313
18.310047,-109,831,16425,-59,-30,37,-44,12,-313
18.320046,-99,812,16425,-62,-37,36,-47,5,-314
18.330047,-92,776,16425,-62,-41,34,-47,1,-316
18.340046,-92,762,16427,-62,-47,34,-47,-5,-316
18.350434,-101,748,16430,-61,-50,34,-46,-8,-316
18.360071,-103,735,16423,-59,-55,33,-44,-13,-317
18.370076,-104,734,16416,-57,-57,33,-42,-15,-317
18.380064,-86,742,16394,-55,-60,32,-40,-18,-318
18.390052,-75,748,16388,-47,-65,31,-32,-23,-319
18.400047,-34,775,16342,-45,-67,30,-30,-25,-320
18.410048,-9,770,16325,-34,-72,24,-19,-30,-326
18.420046,-3,766,16300,-29,-75,21,-14,-33,-329
18.430060,11,749,16264,-22,-77,14,-7,-35,-336
18.440047,0,730,16249,-20,-76,12,-5,-34,-338
18.450048,-20,713,16241,-17,-75,11,-2,-33,-339
18.460045,-37,713,16234,-16,-70,5,-1,-28,-345
18.470047,-31,714,16237,-17,-65,2,-2,-23,-348
18.480046,-31,718,16235,-22,-56,-3,-7,-14,-353
18.490047,-37,723,16234,-24,-52,-4,-9,-10,-354
18.500046,-40,717,16236,-26,-48,-6,-11,-6,-356
18.510047,-33,723,16237,-29,-42,-11,-14,0,-361
18.520047,-24,718,16246,-31,-38,-12,-16,4,-362
18.530047,-34,707,16240,-29,-32,-15,-14,10,-365
18.540047,-63,724,16265,-25,-31,-15,-10,11,-365
18.550046,-64,734,16278,-19,-31,-19,-4,11,-369
18.560047,-79,751,16289,-16,-33,-22,-1,9,-372
18.570045,-65,789,16315,-14,-35,-23,1,7,-373
18.580046,-42,798,16322,-12,-40,-26,3,2,-376
18.590048,-33,752,16353,-13,-42,-27,2,0,-377
18.600047,-14,735,16366,-8,-47,-28,7,-5,-378
18.610047,8,715,16387,-7,-47,-28,8,-5,-378
18.620045,1,677,16396,-2,-52,-26,13,-10,-376
18.630047,6,668,16409,-2,-55,-27,13,-13,-377
18.640045,34,693,16436,-6,-57,-26,9,-15,-376
18.650048,47,685,16440,-24,-58,-24,-9,-16,-374
18.660047,69,640,16459,-32,-62,-25,-17,-20,-375
18.670047,82,624,16466,-49,-66,-26,-34,-24,-376
18.680047,102,596,16484,-56,-67,-28,-41,-25,-378
18.690046,83,578,16526,-62,-69,-28,-47,-27,-378
18.700047,64,564,16545,-73,-76,-28,-58,-34,-378
18.710047,36,569,16561,-81,-80,-30,-66,-38,-380
18.720046,27,567,16548,-98,-95,-34,-83,-53,-384
18.730046,48,528,16533,-106,-103,-37,-91,-61,-387
18.740047,43,496,16538,-116,-116,-43,-101,-74,-393
18.750046,23,518,16526,-115,-122,-45,-100,-80,-395
18.760047,26,550,16508,-117,-128,-49,-102,-86,-399
18.770047,8,553,16491,-125,-136,-56,-110,-94,-406
18.780047,1,556,16459,-126,-141,-59,-111,-99,-409
18.790046,28,570,16444,-134,-152,-60,-119,-110,-410
18.800046,85,571,16430,-139,-156,-60,-124,-114,-410
18.810053,115,564,16408,-148,-162,-62,-133,-120,-412
18.820046,150,552,16372,-152,-162,-64,-137,-120,-414
18.830046,192,503,16298,-152,-162,-67,-137,-120,-417
18.840045,208,497,16271,-138,-169,-69,-123,-127,-419
18.850045,214,519,16222,-132,-171,-70,-117,-129,-420
18.860047,222,510,16204,-128,-170,-67,-113,-128,-417
18.870047,252,505,16131,-126,-168,-61,-111,-126,-411
18.880045,282,461,16108,-110,-164,-51,-95,-122,-401
18.890047,307,453,16086,-101,-159,-44,-86,-117,-394
18.900047,326,457,16053,-90,-152,-38,-75,-110,-388
18.910065,321,464,16046,-74,-133,-29,-59,-91,-379
18.920045,305,469,16017,-67,-120,-26,-52,-78,-376
18.930047,305,481,16014,-55,-95,-22,-40,-53,-372
18.940066,302,478,16014,-50,-83,-21,-35,-41,-371
18.950066,300,468,16023,-40,-54,-22,-25,-12,-372
18.960070,284,469,16013,-36,-41,-23,-21,1,-373
18.970069,255,453,16011,-33,-28,-25,-18,14,-375
18.980068,259,453,16010,-24,-4,-29,-9,38,-379
18.990068,232,477,16073,-19,6,-31,-4,48,-381
19.000067,217,500,16083,-9,25,-35,6,67,-385
19.010068,208,517,16082,-5,31,-36,10,73,-386
19.020067,184,555,16100,-2,36,-37,13,78,-387
19.030068,178,553,16126,0,40,-37,15,82,-387
19.040070,205,528,16178,2,45,-38,17,87,-388
19.050071,216,522,16209,12,53,-39,27,95,-389
19.060074,213,528,16243,18,57,-38,33,99,-388
19.070074,186,552,16276,32,57,-38,47,99,-388
19.080073,178,567,16309,33,56,-38,48,98,-388
19.090074,178,557,16377,32,54,-37,47,96,-387
19.100074,176,559,16391,32,50,-34,47,92,-384
19.110074,168,531,16384,34,47,-32,49,89,-382
19.120070,166,536,16373,40,40,-29,55,82,-379
19.130073,161,561,16374,40,36,-27,55,78,-377
19.140074,161,566,16388,38,29,-25,53,71,-375
19.150073,151,575,16396,35,25,-25,50,67,-375
19.160073,129,594,16384,29,23,-26,44,65,-376
19.170073,115,606,16386,18,17,-28,33,59,-378
19.180073,81,600,16378,11,14,-30,26,56,-380
19.190073,82,595,16390,0,10,-33,15,52,-383
19.200069,65,608,16415,1,8,-34,16,50,-384
19.210073,63,643,16418,-1,6,-39,14,48,-389
19.220073,54,638,16405,-6,5,-41,9,47,-391
19.230074,46,624,16392,-7,2,-41,8,44,-391
19.240071,51,632,16394,-8,-4,-39,7,38,-389
19.250070,63,584,16394,-10,-5,-39,5,37,-389
19.260073,68,564,16382,-8,-8,-37,7,34,-387
19.270074,56,557,16374,-9,-9,-36,6,33,-386
19.280073,53,559,16367,-7,-8,-38,8,34,-388
19.290073,52,561,16353,-7,-9,-39,8,33,-389
19.300072,55,556,16339,-8,-10,-38,7,32,-388
19.310074,56,530,16326,-11,-15,-36,4,27,-386
19.320073,46,511,16322,-10,-17,-34,5,25,-384
19.330069,47,511,16318,-12,-18,-30,3,24,-380
19.340073,40,526,16320,-16,-19,-27,-1,23,-377
19.350068,26,533,16330,-19,-20,-25,-4,22,-375
19.360072,16,553,16328,-26,-22,-22,-11,20,-372
19.370069,33,567,16338,-28,-22,-22,-13,20,-372
19.380072,46,578,16332,-34,-19,-23,-19,23,-373
19.390069,56,565,16340,-38,-16,-25,-23,26,-375
19.400072,50,560,16333,-45,-10,-31,-30,32,-381
19.410073,33,534,16337,-46,-7,-34,-31,35,-384
19.420073,3,533,16309,-46,-5,-37,-31,37,-387
19.430073,-6,532,16313,-47,-3,-39,-32,39,-389
19.440070,-13,537,16322,-47,-4,-41,-32,38,-391
19.450070,-12,547,16322,-49,-4,-45,-34,38,-395
19.460072,-17,544,16325,-49,-4,-46,-34,38,-396
19.470073,-14,527,16324,-41,-5,-50,-26,37,-400
19.480072,-23,515,16324,-35,-5,-50,-20,37,-400
19.490072,-47,528,16348,-27,-5,-50,-12,37,-400
19.500072,-54,547,16371,-10,-8,-47,5,34,-397
19.510072,-83,573,16400,-4,-11,-44,11,31,-394
19.520072,-82,578,16408,4,-20,-37,19,22,-387
19.530073,-95,581,16415,10,-26,-34,25,16,-384
19.540100,-56,576,16403,18,-37,-29,33,5,-379
19.550071,-45,565,16386,21,-42,-29,36,0,-379
19.560073,-18,555,16340,24,-48,-29,39,-6,-379
19.570074,11,557,16326,29,-57,-34,44,-15,-384
19.580073,41,563,16315,29,-62,-38,44,-20,-388
19.590070,53,567,16329,27,-72,-49,42,-30,-399
19.600073,56,581,16344,25,-76,-54,40,-34,-404
19.610073,65,571,16343,21,-80,-59,36,-38,-409
19.620073,68,558,16340,14,-88,-66,29,-46,-416
19.630074,71,522,16333,14,-91,-68,29,-49,-418
19.640069,76,504,16332,13,-96,-65,28,-54,-415
19.650070,84,501,16335,15,-96,-63,30,-54,-413
19.660074,89,507,16329,14,-93,-54,29,-51,-404
19.670074,78,501,16324,14,-88,-48,29,-46,-398
19.680088,58,520,16312,12,-84,-43,27,-42,-393
19.690073,57,540,16318,8,-74,-33,23,-32,-383
19.700074,62,564,16304,0,-67,-29,15,-25,-379
19.710070,55,554,16292,-14,-52,-28,1,-10,-378
19.720073,43,562,16285,-19,-44,-28,-4,-2,-378
19.730091,55,575,16258,-31,-24,-29,-16,18,-379
19.740087,55,580,16245,-38,-14,-29,-23,28,-379
19.750066,55,575,16248,-45,-4,-30,-30,38,-380
19.760065,71,568,16238,-59,12,-33,-44,54,-383
19.770065,79,559,16240,-65,19,-33,-50,61,-383
19.780069,74,570,16250,-72,31,-32,-57,73,-382
19.790064,61,580,16261,-75,36,-31,-60,78,-381
19.800067,41,591,16267,-79,40,-30,-64,82,-380
19.810067,39,577,16275,-77,42,-24,-62,84,-374
19.820065,47,554,16284,-75,41,-19,-60,83,-369
19.830067,57,540,16283,-68,42,-8,-53,84,-358
19.840064,52,506,16312,-62,43,-4,-47,85,-354
19.850066,36,508,16321,-49,45,4,-34,87,-346
19.860065,19,508,16327,-45,45,8,-30,87,-342
19.870067,-16,537,16335,-40,45,12,-25,87,-338
19.880067,-19,552,16327,-41,47,15,-26,89,-335
19.890064,-22,513,16311,-43,48,17,-28,90,-333
19.900067,-4,507,16316,-41,48,20,-26,90,-330
19.910068,-2,489,16327,-40,49,21,-25,91,-329
19.920067,-15,501,16338,-38,51,24,-23,93,-326
19.930067,-17,500,16340,-38,52,25,-23,94,-325
19.940067,-44,480,16371,-41,51,27,-26,93,-323
19.950072,-64,476,16394,-46,48,32,-31,90,-318
19.960075,-100,440,16392,-51,47,34,-36,89,-316
19.970073,-118,431,16399,-57,43,39,-42,85,-311
19.980072,-123,417,16384,-60,43,40,-45,85,-310
19.990072,-135,389,16357,-66,41,39,-51,83,-311
20.000100,-147,362,16349,-68,40,38,-53,82,-312
20.010078,-147,311,16340,-70,39,36,-55,81,-314
20.020073,-169,304,16335,-70,41,30,-55,83,-320
20.030074,-203,265,16345,-69,42,27,-54,84,-323
20.040071,-222,260,16367,-67,42,22,-52,84,-328
20.050069,-256,253,16380,-65,41,20,-50,83,-330
20.060073,-289,257,16411,-62,36,16,-47,78,-334
20.070073,-287,255,16429,-60,33,15,-45,75,-335
20.080089,-273,279,16418,-58,30,13,-43,72,-337
20.090107,-249,285,16411,-56,20,6,-41,62,-344
20.100109,-212,284,16390,-56,13,3,-41,55,-347
20.110074,-198,277,16368,-59,1,-3,-44,43,-353
20.120073,-179,253,16351,-59,-3,-7,-44,39,-357
20.130073,-146,217,16323,-59,-9,-13,-44,33,-363
20.141797,-154,220,16321,-60,-14,-23,-45,28,-373
20.150074,-163,254,16337,-61,-16,-28,-46,26,-378
20.160062,-171,276,16352,-70,-18,-35,-55,24,-385
20.170057,-170,286,16376,-76,-19,-38,-61,23,-388
20.180057,-149,266,16415,-84,-18,-38,-69,24,-388
20.190056,-143,269,16422,-88,-16,-37,-73,26,-387
20.200056,-126,238,16436,-88,-14,-34,-73,28,-384
20.210056,-112,245,16436,-82,-11,-30,-67,31,-380
20.220057,-119,250,16401,-79,-9,-26,-64,33,-376
20.230056,-141,253,16385,-72,-9,-24,-57,33,-374
20.240055,-150,265,16376,-67,-10,-24,-52,32,-374
20.250055,-160,267,16359,-57,-13,-26,-42,29,-376
20.260099,-165,258,16349,-49,-14,-25,-34,28,-375
20.270073,-198,259,16343,-42,-17,-25,-27,25,-375
20.280074,-213,258,16349,-26,-20,-28,-11,22,-378
20.290072,-230,272,16367,-21,-21,-30,-6,21,-380
20.300074,-235,270,16387,-12,-26,-32,3,16,-382
20.310074,-240,269,16402,-8,-30,-32,7,12,-382
20.320070,-265,274,16443,-3,-37,-32,12,5,-382
20.330073,-286,289,16443,-7,-39,-31,8,3,-381
20.340072,-304,283,16450,-13,-42,-29,2,0,-379
20.350073,-292,272,16447,-23,-49,-27,-8,-7,-377
20.360073,-259,271,16398,-27,-51,-26,-12,-9,-376
20.370074,-238,258,16367,-30,-55,-27,-15,-13,-377
20.380074,-221,259,16318,-31,-57,-28,-16,-15,-378
20.390073,-174,263,16237,-33,-57,-30,-18,-15,-380
20.400073,-175,247,16211,-32,-58,-35,-17,-16,-385
20.410072,-148,223,16167,-28,-56,-37,-13,-14,-387
20.420087,-152,215,16154,-28,-52,-43,-13,-10,-393
20.430125,-178,191,16143,-30,-43,-45,-15,-1,-395
20.440178,-168,172,16162,-24,-29,-45,-9,13,-395
20.450110,-171,177,16190,-19,-22,-44,-4,20,-394
20.460113,-189,160,16210,-10,-16,-41,5,26,-391
20.470098,-198,157,16197,7,-3,-32,22,39,-382
20.480108,-203,120,16167,13,2,-27,28,44,-377
20.490097,-200,95,16151,26,9,-20,41,51,-370
20.500090,-197,68,16151,32,12,-16,47,54,-366
20.510088,-192,38,16138,43,19,-13,58,61,-363
20.520090,-176,36,16142,46,26,-13,61,68,-363
20.530091,-174,31,16160,52,33,-14,67,75,-364
20.540092,-184,53,16179,62,47,-19,77,89,-369
20.550086,-195,107,16224,67,52,-22,82,94,-372
20.560079,-215,137,16245,70,58,-28,85,100,-378
20.570065,-236,151,16269,71,58,-30,86,100,-380
20.580072,-275,177,16328,75,58,-31,90,100,-381
20.590087,-280,200,16346,79,54,-30,94,96,-380
20.600093,-283,225,16341,83,51,-28,98,93,-378
20.610073,-282,232,16339,92,43,-20,107,85,-370
20.620098,-286,232,16335,95,38,-15,110,80,-365
20.630076,-267,234,16313,97,28,-6,112,70,-356
20.640061,-252,221,16304,99,23,0,114,65,-350
20.650077,-235,249,16333,101,17,4,116,59,-346
20.660046,-237,267,16358,100,8,10,115,50,-340
20.670043,-251,322,16369,95,4,14,110,46,-336
20.680046,-255,347,16379,82,-3,20,97,39,-330
20.690044,-259,357,16386,70,-6,21,85,36,-329
20.700043,-264,335,16428,60,-9,24,75,33,-326
20.710045,-254,348,16428,43,-14,30,58,28,-320
20.720044,-229,351,16425,35,-13,33,50,29,-317
20.730045,-222,358,16428,19,-10,39,34,32,-311
20.740045,-207,368,16463,14,-9,41,29,33,-309
20.750045,-196,376,16480,-1,-2,46,14,40,-304
20.760044,-192,372,16477,-9,0,48,6,42,-302
20.770045,-167,355,16479,-19,2,48,-4,44,-302
20.780043,-161,350,16455,-39,6,50,-24,48,-300
20.790044,-160,329,16440,-50,9,52,-35,51,-298
20.800044,-165,331,16428,-65,16,52,-50,58,-298
20.810050,-168,341,16399,-72,20,52,-57,62,-298
20.820043,-166,340,16395,-82,28,49,-67,70,-301
20.830044,-179,351,16393,-85,32,46,-70,74,-304
20.840045,-210,359,16393,-87,33,42,-72,75,-308
20.850044,-235,346,16404,-86,35,38,-71,77,-312
20.860043,-300,330,16413,-85,33,37,-70,75,-313
20.870045,-320,317,16408,-79,27,38,-64,69,-312
20.880044,-353,309,16397,-74,24,40,-59,66,-310
20.890045,-378,283,16370,-65,15,47,-50,57,-303
20.900043,-364,256,16354,-59,9,52,-44,51,-298
20.910044,-352,209,16318,-54,4,58,-39,46,-292
20.920043,-355,186,16304,-39,0,67,-24,42,-283
20.930044,-367,193,16305,-31,0,71,-16,42,-279
20.940042,-383,219,16306,-21,0,78,-6,42,-272
20.950044,-400,256,16310,-21,0,81,-6,42,-269
20.960043,-425,303,16320,-22,0,83,-7,42,-267
20.970044,-417,305,16324,-31,0,86,-16,42,-264
20.980043,-421,244,16362,-32,0,86,-17,42,-264
20.990044,-444,192,16388,-29,2,90,-14,44,-260
21.000043,-474,145,16406,-22,2,90,-7,44,-260
21.010044,-489,145,16392,-14,-8,93,1,34,-257
21.020043,-501,139,16398,-11,-16,94,4,26,-256
21.030044,-496,148,16387,-11,-27,92,4,15,-258
21.040043,-477,151,16388,-8,-47,86,7,-5,-264
21.050044,-443,148,16334,-12,-55,82,3,-13,-268
21.060042,-402,129,16344,-3,-73,75,12,-31,-275
21.070044,-381,143,16333,-1,-77,71,14,-35,-279
21.080059,-359,156,16337,7,-81,60,22,-39,-290
21.090045,-358,171,16338,14,-83,57,29,-41,-293
21.100043,-365,242,16360,18,-83,52,33,-41,-298
21.110044,-372,273,16360,17,-83,47,32,-41,-303
21.120044,-378,297,16314,15,-85,44,30,-43,-306
21.130044,-366,274,16346,11,-86,39,26,-44,-311
21.140042,-372,282,16321,10,-83,34,25,-41,-316
21.150060,-401,277,16322,22,-78,24,37,-36,-326
21.160060,-412,311,16297,24,-75,17,39,-33,-333
21.170063,-441,319,16279,27,-68,11,42,-26,-339
21.180046,-455,305,16284,31,-55,-3,46,-13,-353
21.190044,-472,250,16302,36,-48,-10,51,-6,-360
21.200044,-488,234,16316,44,-40,-20,59,2,-370
21.210043,-484,217,16322,48,-38,-24,63,4,-374
21.220061,-469,194,16336,51,-36,-26,66,6,-376
21.230050,-459,190,16348,61,-34,-26,76,8,-376
21.240045,-416,186,16352,66,-34,-27,81,8,-377
21.250048,-405,202,16346,74,-38,-26,89,4,-376
21.260043,-358,190,16326,78,-40,-25,93,2,-375
21.270051,-325,182,16313,87,-48,-22,102,-6,-372
21.280044,-308,197,16310,97,-52,-20,112,-10,-370
21.290044,-275,262,16304,104,-57,-19,119,-15,-369
21.300043,-269,288,16296,118,-64,-15,133,-22,-365
21.310044,-284,352,16260,122,-71,-12,137,-29,-362
21.320063,-293,367,16255,127,-84,-10,142,-42,-360
21.330061,-312,387,16261,131,-90,-8,146,-48,-358
21.340044,-326,429,16276,140,-103,-4,155,-61,-354
21.350045,-342,457,16297,143,-108,-4,158,-66,-354
21.360044,-373,517,16301,147,-112,-3,162,-70,-353
21.370042,-367,543,16291,148,-121,-3,163,-79,-353
21.380044,-359,580,16295,146,-123,-5,161,-81,-355
21.390043,-338,578,16309,139,-123,-10,154,-81,-360
21.400044,-313,575,16322,135,-120,-13,150,-78,-363
21.410058,-270,556,16334,128,-108,-18,143,-66,-368
21.420059,-253,549,16336,124,-100,-20,139,-58,-370
21.430045,-265,562,16328,119,-92,-22,134,-50,-372
21.440044,-280,567,16333,104,-75,-25,119,-33,-375
21.450042,-281,587,16359,97,-69,-27,112,-27,-377
21.460043,-260,602,16369,81,-55,-30,96,-13,-380
21.470043,-243,614,16373,70,-44,-33,85,-2,-383
21.480044,-203,597,16343,58,-33,-35,73,9,-385
21.490044,-184,591,16325,41,-13,-40,56,29,-390
21.500044,-168,599,16303,34,-4,-43,49,38,-393
21.510043,-182,592,16280,22,9,-51,37,51,-401
21.520043,-205,611,16272,16,14,-55,31,56,-405
21.530043,-234,631,16275,7,21,-60,22,63,-410
21.540042,-263,644,16276,3,24,-60,18,66,-410
21.550044,-309,657,16305,-1,25,-61,14,67,-411
21.560043,-337,663,16312,-5,26,-59,10,68,-409
21.570043,-371,667,16337,-5,28,-58,10,70,-408
21.580043,-392,681,16336,5,28,-49,20,70,-399
21.590043,-408,697,16351,12,26,-45,27,68,-395
21.600043,-440,732,16386,25,22,-37,40,64,-387
21.610044,-453,722,16388,30,18,-33,45,60,-383
21.620042,-436,708,16368,37,15,-27,52,57,-377
21.630042,-425,702,16353,44,5,-17,59,47,-367
21.640043,-411,669,16343,47,1,-14,62,43,-364
21.650043,-398,653,16344,47,-3,-11,62,39,-361
21.660043,-384,642,16341,47,-3,-11,62,39,-361
21.670044,-393,634,16321,42,-5,-12,57,37,-362
21.680045,-413,634,16299,37,-10,-12,52,32,-362
21.690044,-427,587,16299,45,-25,-12,60,17,-362
21.700044,-379,636,16321,46,-31,-11,61,11,-361
21.710067,-341,632,16310,32,-22,-12,47,20,-362
21.720045,-337,592,16313,22,-10,-18,37,32,-368
21.730044,-305,578,16323,30,-8,-21,45,34,-371
21.740046,-269,621,16340,30,-3,-25,45,39,-375
21.750043,-278,623,16359,42,-9,-33,57,33,-383
21.760044,-241,687,16410,48,-14,-38,63,28,-388
21.770044,-230,695,16421,44,-13,-46,59,29,-396
21.780051,-274,650,16459,52,-15,-47,67,27,-397
21.790069,-275,679,16478,76,-29,-45,91,13,-395
21.800050,-276,706,16498,77,-30,-42,92,12,-392
21.810072,-326,683,16491,77,-35,-38,92,7,-388
21.820045,-342,694,16467,85,-52,-23,100,-10,-373
21.830043,-338,707,16374,80,-63,-16,95,-21,-366
21.840044,-339,701,16330,61,-83,-4,76,-41,-354
21.850043,-327,704,16277,53,-95,-1,68,-53,-351
21.860045,-274,719,16189,33,-108,0,48,-66,-350
21.870044,-255,706,16150,25,-110,-3,40,-68,-353
21.880044,-251,716,16133,23,-111,-8,38,-69,-358
21.890044,-262,749,16182,20,-105,-24,35,-63,-374
21.900043,-313,794,16307,18,-94,-31,33,-52,-381
21.910044,-357,791,16352,18,-80,-47,33,-38,-397
21.920063,-398,784,16393,31,-82,-52,46,-40,-402
21.930044,-400,800,16443,58,-85,-53,73,-43,-403
21.940044,-391,735,16450,72,-88,-31,87,-46,-381
21.950042,-285,668,16449,97,-92,19,112,-50,-331
21.960045,-270,661,16453,129,-83,125,144,-41,-225
21.970044,-304,613,16482,137,-69,142,152,-27,-208
21.980044,-289,661,16466,153,-46,164,168,-4,-186
21.990043,-305,791,16481,134,-33,168,149,9,-182
22.000042,-399,1320,16479,80,-15,110,95,27,-240
22.010042,-614,1350,16425,-63,41,-14,-48,83,-364
22.020043,-735,1216,16394,-85,52,-9,-70,94,-359
22.030044,-533,1004,16427,-121,54,98,-106,96,-252
22.040043,-290,673,16412,-112,45,170,-97,87,-180
22.050056,-286,699,16400,-70,9,291,-55,51,-59
22.060053,-282,803,16422,-88,7,324,-73,49,-26
22.070065,-330,1015,16400,-115,20,345,-100,62,-5
22.080044,-221,1032,16391,-159,20,348,-144,62,-2
22.090043,-119,878,16378,-159,9,330,-144,51,-20
22.100043,-156,844,16374,-159,-8,325,-144,34,-25
22.110043,-256,873,16409,-189,0,336,-174,42,-14
22.120044,-391,968,16434,-259,60,356,-244,102,6
22.130043,-251,809,16523,-334,112,330,-319,154,-20
22.140044,-125,684,16631,-418,191,291,-403,233,-59
22.150043,-155,642,16680,-504,399,263,-489,441,-87
22.160044,-542,654,16899,-494,514,289,-479,556,-61
22.170044,-329,633,16882,-372,820,375,-357,862,25
22.180043,-109,490,17011,-282,996,432,-267,1038,82
22.190044,122,325,17198,-147,1202,513,-132,1244,163
22.200045,-54,404,17261,131,1685,674,146,1727,324
22.210043,-875,639,16892,234,1944,768,249,1986,418
22.220044,-1317,732,16647,398,2348,932,413,2390,582
22.230045,-1880,760,16093,428,2463,975,443,2505,625
22.240044,-2101,738,15902,352,2505,977,367,2547,627
22.250041,-2308,829,15778,256,2487,955,271,2529,605
22.260045,-2478,925,15888,128,2484,928,143,2526,578
22.270043,-2508,872,15988,-43,2534,855,-28,2576,505
22.280045,-2605,629,16102,-34,2552,811,-19,2594,461
22.290043,-2838,493,16161,224,2478,690,239,2520,340
22.300045,-3301,394,16153,416,2356,625,431,2398,275
22.310043,-3492,456,16166,666,2004,523,681,2046,173
22.320045,-3694,540,16179,664,1786,500,679,1828,150
22.330043,-4009,569,16218,602,1540,472,617,1582,122
22.340044,-4127,441,16289,468,998,385,483,1040,35
22.350043,-4112,214,16426,441,761,346,456,803,-4
22.360045,-4137,307,16467,359,452,285,374,494,-65
22.370043,-4142,480,16490,222,364,267,237,406,-83
22.380044,-4100,626,16590,-149,230,297,-134,272,-53
22.390043,-4078,618,16736,-272,172,362,-257,214,12
22.400043,-4017,519,17092,-333,114,437,-318,156,87
22.410043,-4076,381,17217,-243,-89,557,-228,-47,207
22.420044,-4175,251,17229,-162,-234,571,-147,-192,221
22.430043,-4211,312,17129,-108,-533,507,-93,-491,157
22.440043,-4189,362,16998,-151,-640,466,-136,-598,116
22.450041,-4146,389,16786,-208,-703,438,-193,-661,88
22.460043,-4158,303,16723,-214,-761,395,-199,-719,45
22.470043,-4237,104,16732,-105,-779,358,-90,-737,8
22.480045,-4278,134,16714,225,-814,215,240,-772,-135
22.490042,-4278,387,16528,363,-836,110,378,-794,-240
22.500044,-4167,591,16399,503,-862,-87,518,-820,-437
22.510043,-4027,767,16285,549,-852,-159,564,-810,-509
22.520044,-3834,825,16264,627,-826,-205,642,-784,-555
22.530044,-3769,815,16337,896,-772,-258,911,-730,-608
22.540043,-3804,895,16367,1035,-768,-295,1050,-726,-645
22.550044,-3774,1133,16271,1208,-849,-383,1223,-807,-733
22.560045,-3619,1669,16034,1208,-888,-404,1223,-846,-754
22.570053,-3478,1804,15941,1131,-876,-359,1146,-834,-709
