# fs_hz,100.0
# duration_s,4500
# gyro_offset_counts_x,6
# gyro_offset_counts_y,-33
# gyro_offset_counts_z,6

t_s,accel_x,accel_y,accel_z,gyro_x_raw,gyro_y_raw,gyro_z_raw,gyro_x_corr,gyro_y_corr,gyro_z_corr
0.000010,-227,1348,16280,-8,-31,3,-14,2,-3
0.010071,-208,1346,16278,-8,-31,9,-14,2,3
0.020068,-202,1395,16276,-8,-30,7,-14,3,1
0.030066,-204,1398,16273,-12,-29,6,-18,4,0
0.040067,-198,1426,16258,-13,-31,2,-19,2,-4
0.050066,-184,1443,16264,-15,-31,-1,-21,2,-7
0.060065,-184,1412,16278,-13,-31,-10,-19,2,-16
0.070065,-193,1425,16281,-13,-32,-18,-19,1,-24
0.080080,-190,1412,16278,-11,-32,-30,-17,1,-36
0.090076,-216,1358,16286,-3,-33,-29,-9,0,-35
0.100088,-202,1357,16292,7,-34,-28,1,-1,-34
0.110067,-201,1346,16280,7,-34,-28,1,-1,-34
0.120064,-198,1334,16270,3,-35,-31,-3,-2,-37
0.130065,-207,1311,16267,-2,-34,-32,-8,-1,-38
0.140069,-210,1306,16255,-3,-33,-36,-9,0,-42
0.150130,-216,1296,16245,-9,-34,-38,-15,-1,-44
0.160079,-221,1232,16281,-9,-35,-34,-15,-2,-40
0.170063,-229,1227,16267,-10,-35,-31,-16,-2,-37
0.180063,-190,1148,16302,-26,-34,-24,-32,-1,-30
0.190062,-221,1072,16335,-10,-34,-37,-16,-1,-43
0.200064,-208,1107,16336,40,-34,-34,34,-1,-40
0.210066,-209,1120,16314,60,-33,-34,54,0,-40
0.220065,-216,1164,16310,78,-34,-37,72,-1,-43
0.230065,-213,1247,16287,107,-35,-45,101,-2,-51
0.240065,-212,1272,16291,119,-35,-45,113,-2,-51
0.250066,-211,1441,16266,135,-35,-35,129,-2,-41
0.260064,-208,1473,16261,132,-35,-19,126,-2,-25
0.270066,-206,1485,16275,131,-30,14,125,3,8
0.280065,-202,1533,16220,122,-30,18,116,3,12
0.290064,-202,1544,16231,103,-30,22,97,3,16
0.300066,-204,1534,16260,93,-31,32,87,2,26
0.310066,-215,1549,16272,95,-31,37,89,2,31
0.320065,-199,1625,16233,95,-30,36,89,3,30
0.330065,-187,1648,16220,82,-32,25,76,1,19
0.340064,-235,1638,16224,62,-31,16,56,2,10
0.350065,-256,1543,16248,41,-33,8,35,0,2
0.360065,-242,1545,16242,34,-35,7,28,-2,1
0.370063,-203,1474,16268,24,-34,13,18,-1,7
0.380065,-180,1449,16301,36,-34,24,30,-1,18
0.390064,-196,1442,16302,71,-31,39,65,2,33
0.400064,-198,1547,16248,71,-31,41,65,2,35
0.410065,-177,1578,16242,64,-32,36,58,1,30
0.420065,-188,1648,16241,49,-35,11,43,-2,5
0.430066,-231,1626,16241,35,-36,4,29,-3,-2
0.440065,-260,1536,16247,20,-36,0,14,-3,-6
0.450065,-245,1538,16243,12,-37,-3,6,-4,-9
0.460064,-237,1540,16247,-8,-37,-10,-14,-4,-16
0.470065,-191,1504,16294,-12,-37,-11,-18,-4,-17
0.480064,-162,1526,16300,-5,-35,-10,-11,-2,-16
0.490064,-180,1513,16287,9,-36,-5,3,-3,-11
0.500063,-177,1510,16287,18,-36,-6,12,-3,-12
0.510065,-255,1472,16266,16,-34,-3,10,-1,-9
0.520065,-252,1467,16286,15,-34,0,9,-1,-6
0.530065,-252,1502,16275,10,-34,2,4,-1,-4
0.540065,-217,1487,16282,4,-34,4,-2,-1,-2
0.550065,-184,1464,16296,11,-34,9,5,-1,3
0.560065,-129,1547,16255,26,-33,3,20,0,-3
0.570064,-160,1535,16260,15,-32,0,9,1,-6
0.580065,-215,1453,16283,15,-28,17,9,5,11
0.590088,-262,1430,16279,26,-27,26,20,6,20
0.600070,-278,1493,16252,28,-28,32,22,5,26
0.610069,-267,1575,16246,19,-30,27,13,3,21
0.620065,-251,1609,16252,14,-32,22,8,1,16
0.630065,-242,1634,16254,7,-32,15,1,1,9
0.640064,-230,1598,16271,5,-33,11,-1,0,5
0.650066,-218,1565,16293,19,-31,9,13,2,3
0.660063,-203,1541,16293,27,-30,10,21,3,4
0.670065,-211,1535,16309,34,-29,11,28,4,5
0.680063,-223,1548,16295,55,-25,18,49,8,12
0.690064,-201,1577,16275,64,-24,25,58,9,19
0.700063,-164,1607,16292,82,-24,41,76,9,35
0.710064,-168,1596,16273,94,-23,41,88,10,35
0.720063,-126,1578,16253,93,-22,44,87,11,38
0.730065,-116,1534,16269,87,-22,49,81,11,43
0.740063,-88,1507,16280,91,-23,56,85,10,50
0.750064,-10,1607,16282,102,-20,73,96,13,67
0.760063,21,1629,16330,97,-11,81,91,22,75
0.770065,167,1719,16517,88,28,73,82,61,67
0.780064,242,1812,16561,80,72,55,74,105,49
0.790064,277,1863,16547,43,177,13,37,210,7
0.800063,139,1776,16492,29,224,3,23,257,-3
0.810064,79,1712,16471,21,264,-1,15,297,-7
0.820063,34,1684,16464,18,329,-11,12,362,-17
0.830065,43,1733,16464,18,360,-21,12,393,-27
0.840063,53,1813,16450,17,422,-65,11,455,-71
0.850065,-37,1997,16439,11,454,-98,5,487,-104
0.860064,-122,2003,16465,7,489,-115,1,522,-121
0.870064,-201,2113,16460,15,564,-171,9,597,-177
0.880063,-239,2109,16466,8,603,-197,2,636,-203
0.890064,-315,2057,16383,9,679,-256,3,712,-262
0.900064,-393,2015,16302,2,703,-287,-4,736,-293
0.910064,-484,1997,16184,-13,710,-333,-19,743,-339
0.920063,-709,1930,16114,-22,701,-347,-28,734,-353
0.930064,-792,1896,16160,-23,689,-353,-29,722,-359
0.940063,-906,1773,16003,1,657,-355,-5,690,-361
0.950065,-1087,1673,15916,29,611,-343,23,644,-349
0.960063,-1199,1544,15805,92,486,-320,86,519,-326
0.970064,-1260,1553,15817,100,416,-320,94,449,-326
0.980062,-1316,1515,15888,81,309,-305,75,342,-311
0.990063,-1412,1372,16111,87,285,-303,81,318,-309
1.000063,-1460,1330,16206,106,268,-307,100,301,-313
1.010064,-1566,1452,16062,113,242,-310,107,275,-316
1.020063,-1560,1474,16052,83,225,-305,77,258,-311
1.030064,-1435,1505,16199,61,201,-290,55,234,-296
1.040064,-1398,1507,16256,63,201,-287,57,234,-293
1.050064,-1381,1554,16287,78,220,-278,72,253,-284
1.060064,-1272,1604,16360,75,240,-270,69,273,-276
1.070064,-1209,1645,16396,75,266,-252,69,299,-258
1.080063,-1103,1756,16443,80,324,-231,74,357,-237
1.090065,-1107,1791,16456,81,362,-232,75,395,-238
1.100064,-1121,1792,16467,94,440,-236,88,473,-242
1.110063,-1227,1847,16375,109,470,-242,103,503,-248
1.120065,-1338,1805,16366,118,497,-243,112,530,-249
1.130064,-1402,1808,16404,165,543,-232,159,576,-238
1.140064,-1385,1867,16431,192,573,-238,186,606,-244
1.150064,-1371,2067,16441,204,662,-278,198,695,-284
1.160064,-1276,2262,16393,181,715,-351,175,748,-357
1.170064,-1408,2346,16336,83,817,-468,77,850,-474
1.180064,-2040,1863,16329,84,860,-435,78,893,-441
1.190064,-2198,1750,16228,167,876,-384,161,909,-390
1.200064,-2335,2000,15951,230,868,-329,224,901,-335
1.210064,-2348,1998,15979,214,859,-324,208,892,-330
1.220064,-2444,1786,16056,236,843,-322,230,876,-328
1.230064,-2546,1620,16061,292,833,-317,286,866,-323
1.240063,-2503,1685,15954,336,798,-337,330,831,-343
1.250064,-2818,1563,15801,318,771,-312,312,804,-318
1.260063,-2842,1425,15781,292,737,-315,286,770,-321
1.270067,-2981,1368,15823,302,649,-330,296,682,-336
1.280064,-3055,1487,15819,319,606,-321,313,639,-327
1.290063,-3056,1848,15733,306,534,-287,300,567,-293
1.300064,-2982,2019,15711,274,501,-267,268,534,-273
1.310064,-2907,2146,15727,243,469,-244,237,502,-250
1.320064,-2934,2348,15736,173,420,-224,167,453,-230
1.330064,-3003,2329,15736,140,397,-212,134,430,-218
1.340064,-2964,2350,15582,65,312,-312,59,345,-318
1.350083,-3050,2432,15521,-40,260,-408,-46,293,-414
1.360062,-3112,2319,15578,-285,188,-585,-291,221,-591
1.370061,-3241,2095,15600,-404,170,-643,-410,203,-649
1.380064,-3207,1984,15652,-525,146,-714,-531,179,-720
1.390063,-3305,1499,16021,-618,136,-730,-624,169,-736
1.400065,-3263,1445,16090,-538,135,-703,-544,168,-709
1.410064,-3207,1484,16037,-367,133,-611,-373,166,-617
1.420064,-3088,1753,16010,-307,122,-578,-313,155,-584
1.430064,-3055,1979,16028,-267,127,-463,-273,160,-469
1.440063,-3007,1627,16103,-250,133,-326,-256,166,-332
1.450065,-3045,1747,16116,-208,149,-239,-214,182,-245
1.460062,-3056,1852,16051,-325,241,-175,-331,274,-181
1.470064,-3052,1853,16049,-414,283,-191,-420,316,-197
1.480064,-3082,2081,15930,-522,358,-187,-528,391,-193
1.490064,-3098,2145,15860,-559,375,-174,-565,408,-180
1.500062,-3108,1997,15882,-569,374,-229,-575,407,-235
1.510064,-3144,1293,15922,-509,358,-270,-515,391,-276
1.520064,-3388,984,15969,-417,338,-283,-423,371,-289
1.530064,-3888,469,16238,-135,309,-248,-141,342,-254
1.540063,-4009,517,16291,43,314,-208,37,347,-214
1.550064,-4125,754,16277,390,344,-114,384,377,-120
1.560064,-4051,1594,16025,486,357,-80,480,390,-86
1.570064,-4011,1731,16038,563,371,-59,557,404,-65
1.580064,-3970,1836,15858,659,408,-59,653,441,-65
1.590063,-3964,1932,15725,629,420,-73,623,453,-79
1.600064,-3908,2078,15746,479,434,-97,473,467,-103
1.610063,-3787,2167,15803,452,441,-105,446,474,-111
1.620062,-3570,2309,15747,368,449,-195,362,482,-201
1.630064,-3363,2507,15642,275,443,-284,269,476,-290
1.640063,-3363,2409,15642,192,436,-378,186,469,-384
1.650081,-3636,2075,15714,118,424,-510,112,457,-516
1.660063,-3789,2038,15732,111,425,-546,105,458,-552
1.670064,-3746,1964,15796,139,436,-615,133,469,-621
1.680063,-3613,1995,15814,175,463,-662,169,496,-668
1.690063,-3315,1841,15640,323,552,-744,317,585,-750
1.700063,-3895,1658,16105,497,552,-677,491,585,-683
1.710164,-3968,1118,16173,699,550,-625,693,583,-631
1.720192,-4478,1254,15866,1005,562,-553,999,595,-559
1.730126,-4453,1681,15653,1033,574,-541,1027,607,-547
1.740090,-4858,2070,15455,830,607,-532,824,640,-538
1.750088,-5071,2252,15338,677,622,-511,671,655,-517
1.760086,-5177,2251,15301,354,626,-372,348,659,-378
1.770088,-5074,2128,15289,213,617,-313,207,650,-319
1.780086,-5036,2186,15212,40,604,-278,34,637,-284
1.790087,-5135,2051,15187,-353,570,-286,-359,603,-292
1.800095,-5206,1961,15159,-529,545,-320,-535,578,-326
1.810117,-5236,1913,15158,-724,458,-393,-730,491,-399
1.820090,-5158,1739,15398,-724,415,-400,-730,448,-406
1.830074,-5050,1757,15483,-698,386,-404,-704,419,-410
1.840061,-5031,1611,15634,-604,369,-353,-610,402,-359
1.850062,-5091,1498,15648,-517,370,-314,-523,403,-320
1.860061,-5070,1289,15844,-298,382,-189,-304,415,-195
1.870061,-5074,1098,15953,-140,405,-95,-146,438,-101
1.880063,-4982,1061,16013,254,485,127,248,518,121
1.890063,-4812,1042,15965,456,552,242,450,585,236
1.900064,-4758,1265,15785,590,617,334,584,650,328
1.910063,-5196,1775,15073,454,654,245,448,687,239
1.920064,-5165,1634,15145,230,632,171,224,665,165
1.930063,-5236,1694,15234,-53,612,76,-59,645,70
1.940062,-5237,1821,15230,-179,610,48,-185,643,42
1.950063,-5244,1829,15285,-338,614,-13,-344,647,-19
1.960063,-5376,1859,15356,-366,619,-26,-372,652,-32
1.970064,-5410,1896,15401,-366,629,-32,-372,662,-38
1.980063,-5486,1937,15377,-336,657,-28,-342,690,-34
1.990064,-5567,1863,15362,-321,671,-20,-327,704,-26
2.000063,-5907,1561,15361,-269,698,33,-275,731,27
2.010064,-6150,1361,15395,-212,714,95,-218,747,89
2.020089,-6248,1192,15405,3,751,276,-3,784,270
2.030065,-5924,1871,15078,72,771,317,66,804,311
2.040063,-5914,2163,14873,53,770,293,47,803,287
2.050064,-6012,2214,14874,-109,720,159,-115,753,153
2.060063,-6152,2092,14951,-153,697,128,-159,730,122
2.070062,-6230,1986,15059,-77,677,178,-83,710,172
2.080063,-6227,2137,15069,-17,676,219,-23,709,213
2.090063,-6230,2316,14948,22,674,229,16,707,223
2.100063,-6347,2531,14763,17,642,146,11,675,140
2.110062,-6461,2425,14764,-10,618,89,-16,651,83
2.120063,-6547,2193,14834,6,571,17,0,604,11
2.130062,-6608,2123,14826,31,554,-1,25,587,-7
2.140063,-6674,2026,14803,63,524,-4,57,557,-10
2.150062,-6812,1653,14792,61,512,13,55,545,7
2.160064,-6951,1520,14790,52,502,39,46,535,33
2.170062,-7076,1221,14798,9,482,126,3,515,120
2.180062,-7126,1169,14766,-9,469,190,-15,502,184
2.190062,-7154,1098,14744,-16,426,345,-22,459,339
2.200063,-7153,1272,14705,-15,402,403,-21,435,397
2.210061,-7136,1434,14678,-78,364,443,-84,397,437
2.220062,-7029,1761,14715,-138,354,427,-144,387,421
2.230062,-6927,1941,14768,-183,348,386,-189,381,380
2.240063,-6560,2194,14802,-241,353,287,-247,386,281
2.250064,-6461,2324,14886,-222,361,235,-228,394,229
2.260062,-6286,2472,14964,-102,397,145,-108,430,139
2.270063,-6302,2505,14964,-38,421,83,-44,454,77
2.280062,-6315,2432,14959,57,481,-56,51,514,-62
2.290062,-6399,2235,14886,74,510,-139,68,543,-145
2.300063,-6537,2059,14862,71,540,-213,65,573,-219
2.310062,-6734,1679,14908,95,594,-263,89,627,-269
2.320063,-6775,1616,14907,117,623,-258,111,656,-264
2.330062,-6820,1583,14884,141,682,-249,135,715,-255
2.340063,-6985,1687,14689,126,704,-259,120,737,-265
2.350062,-7040,1727,14641,92,722,-276,86,755,-282
2.360064,-7067,1801,14647,40,759,-318,34,792,-324
2.370062,-7131,1778,14657,22,781,-339,16,814,-345
2.380063,-7297,1738,14577,22,825,-377,16,858,-383
2.390062,-7334,1728,14559,25,847,-393,19,880,-399
2.400063,-7399,1683,14530,37,898,-423,31,931,-429
2.410063,-7547,1492,14454,38,921,-438,32,954,-444
2.420062,-7641,1490,14378,23,942,-452,17,975,-458
2.430061,-7827,1419,14266,-81,966,-463,-87,999,-469
2.440062,-7931,1271,14298,-121,973,-441,-127,1006,-447
2.450064,-8105,1123,14290,-85,993,-298,-91,1026,-304
2.460063,-8083,1243,14290,-42,1008,-220,-48,1041,-226
2.470062,-8083,1408,14221,-5,1040,-146,-11,1073,-152
2.480063,-8241,1689,14013,-15,1050,-135,-21,1083,-141
2.490062,-8322,1789,13933,-34,1057,-145,-40,1090,-151
2.500062,-8519,1940,13855,-48,1058,-164,-54,1091,-170
2.510062,-8653,1980,13767,-29,1054,-169,-35,1087,-175
2.520062,-8758,2011,13662,2,1020,-220,-4,1053,-226
2.530062,-8978,1885,13547,12,996,-244,6,1029,-250
2.540062,-9067,1784,13496,20,971,-265,14,1004,-271
2.550062,-9258,1575,13358,-4,916,-302,-10,949,-308
2.560063,-9385,1428,13299,-35,879,-320,-41,912,-326
2.570061,-9474,1370,13304,-88,800,-338,-94,833,-344
2.580063,-9534,1431,13310,-98,764,-338,-104,797,-344
2.590062,-9564,1505,13311,-64,700,-300,-70,733,-306
2.600063,-9542,1630,13316,-27,674,-279,-33,707,-285
2.610061,-9572,1630,13320,5,650,-261,-1,683,-267
2.620063,-9593,1549,13317,63,616,-218,57,649,-224
2.630062,-9620,1488,13261,81,600,-201,75,633,-207
2.640109,-9754,1394,13098,65,554,-180,59,587,-186
2.650063,-9823,1350,13035,32,522,-179,26,555,-185
2.660062,-9912,1306,12976,-47,446,-188,-53,479,-194
2.670062,-9975,1282,12982,-80,406,-191,-86,439,-197
2.680063,-9951,1307,13013,-105,369,-191,-111,402,-197
2.690062,-9867,1331,13081,-120,309,-182,-126,342,-188
2.700063,-9857,1307,13090,-120,288,-173,-126,321,-179
2.710062,-9834,1261,13092,-120,253,-152,-126,286,-158
2.720063,-9817,1243,13110,-126,238,-143,-132,271,-149
2.730062,-9816,1225,13112,-137,215,-126,-143,248,-132
2.740063,-9851,1210,13080,-149,203,-120,-155,236,-126
2.750061,-9859,1192,13072,-160,190,-117,-166,223,-123
2.760063,-9848,1222,13095,-166,168,-111,-172,201,-117
2.770061,-9870,1229,13077,-165,158,-108,-171,191,-114
2.780063,-9876,1259,13072,-164,139,-102,-170,172,-108
2.790062,-9817,1291,13111,-162,133,-96,-168,166,-102
2.800063,-9789,1263,13139,-155,132,-89,-161,165,-95
2.810062,-9758,1187,13171,-144,136,-76,-150,169,-82
2.820062,-9732,1153,13202,-136,143,-69,-142,176,-75
2.830062,-9729,1131,13156,-127,159,-65,-133,192,-71
2.840063,-9711,1115,13157,-128,165,-65,-134,198,-71
2.850061,-9666,1120,13164,-102,182,-60,-108,215,-66
2.860061,-9759,1190,13170,-90,192,-56,-96,225,-62
2.870062,-9748,1132,13175,-84,205,-54,-90,238,-60
2.880062,-9765,1072,13151,-65,230,-50,-71,263,-56
2.890062,-9780,1038,13131,-67,243,-55,-73,276,-61
2.900063,-9785,1022,13109,-61,268,-57,-67,301,-63
2.910062,-9782,1033,13104,-56,282,-58,-62,315,-64
2.920063,-9779,1013,13130,-17,306,-62,-23,339,-68
2.930062,-9861,952,13072,4,317,-68,-2,350,-74
2.940062,-9905,922,13043,9,326,-75,3,359,-81
2.950062,-9949,861,12966,3,340,-90,-3,373,-96
2.960062,-10053,863,12974,-12,345,-98,-18,378,-104
2.970062,-10010,779,13085,-37,375,-93,-43,408,-99
2.980062,-10003,788,13076,-34,397,-86,-40,430,-92
2.990061,-10024,798,13025,-32,436,-77,-38,469,-83
3.000062,-10100,844,12807,-41,444,-83,-47,477,-89
3.010061,-10138,871,12743,-60,440,-100,-66,473,-106
3.020062,-10291,863,12726,-99,426,-135,-105,459,-141
3.030061,-10318,829,12756,-118,423,-149,-124,456,-155
3.040062,-10284,763,12742,-127,427,-159,-133,460,-165
3.050061,-10402,739,12712,-128,428,-162,-134,461,-168
3.060062,-10467,709,12722,-118,429,-163,-124,462,-169
3.070062,-10500,755,12715,-37,432,-146,-43,465,-152
3.080062,-10507,890,12648,4,431,-140,-2,464,-146
3.090061,-10401,998,12555,73,419,-120,67,452,-126
3.100063,-10408,1119,12529,120,413,-104,114,446,-110
3.110062,-10409,1173,12485,164,404,-84,158,437,-90
3.120063,-10468,1179,12437,179,397,-80,173,430,-86
3.130062,-10497,1193,12369,182,385,-89,176,418,-95
3.140063,-10594,1151,12372,155,368,-114,149,401,-120
3.150061,-10655,1106,12361,138,362,-123,132,395,-129
3.160063,-10839,1063,12379,123,351,-122,117,384,-128
3.170062,-10884,1018,12379,116,347,-120,110,380,-126
3.180062,-10986,989,12384,117,340,-103,111,373,-109
3.190063,-11098,874,12234,109,337,-94,103,370,-100
3.200063,-11184,849,12167,88,326,-85,82,359,-91
3.210062,-11263,767,12131,21,293,-68,15,326,-74
3.220062,-11282,734,12140,-8,272,-55,-14,305,-61
3.230085,-11216,724,12153,-56,232,-30,-62,265,-36
3.240063,-11185,724,12184,-70,217,-16,-76,250,-22
3.250063,-11142,748,12196,-66,192,14,-72,225,8
3.260062,-11088,828,12233,-49,183,32,-55,216,26
3.270062,-11073,858,12253,-26,176,53,-32,209,47
3.280062,-11118,950,12133,9,159,80,3,192,74
3.290062,-11122,980,12121,4,145,81,-2,178,75
3.300082,-11099,987,12148,14,125,87,8,158,81
3.310081,-11027,1001,12180,27,123,92,21,156,86
3.320087,-11032,1033,12164,44,123,91,38,156,85
3.330091,-11023,1115,12100,34,121,78,28,154,72
3.340089,-11003,1148,12093,14,119,62,8,152,56
3.350087,-10986,1107,12137,-21,117,27,-27,150,21
3.360089,-10970,1054,12178,-20,120,17,-26,153,11
3.370090,-11010,1067,12150,7,129,11,1,162,5
3.380086,-11023,1066,12139,14,132,11,8,165,5
3.390090,-11089,1052,12107,26,131,11,20,164,5
3.400092,-11145,1017,12064,36,127,13,30,160,7
3.410089,-11137,1076,12020,39,122,5,33,155,-1
3.420090,-11208,921,12070,35,107,-1,29,140,-7
3.430090,-11227,905,12045,46,98,4,40,131,-2
3.440091,-11214,921,12043,55,81,18,49,114,12
3.450086,-11194,944,12035,60,73,18,54,106,12
3.460086,-11210,968,12006,63,65,16,57,98,10
3.470087,-11240,1012,11975,54,44,6,48,77,0
3.480089,-11236,1028,11985,42,32,1,36,65,-5
3.490090,-11201,1039,12011,21,17,-3,15,50,-9
3.500089,-11180,1017,12022,13,12,-2,7,45,-8
3.510088,-11156,983,12041,3,9,-2,-3,42,-8
3.520090,-11143,958,12049,-3,8,-2,-9,41,-8
3.530091,-11128,960,12060,-12,10,-2,-18,43,-8
3.540090,-11113,1034,12066,-24,16,2,-30,49,-4
3.550090,-11106,1034,12080,-26,21,5,-32,54,-1
3.560090,-11083,1098,12060,-28,37,8,-34,70,2
3.570090,-11086,1115,12062,-38,46,7,-44,79,1
3.580090,-11086,1113,12059,-55,59,-3,-61,92,-9
3.590091,-11160,1097,12009,-64,60,-10,-70,93,-16
3.600090,-11196,1070,11996,-69,60,-17,-75,93,-23
3.610090,-11174,1060,12016,-65,60,-23,-71,93,-29
3.620116,-11158,1051,12049,-56,63,-22,-62,96,-28
3.630090,-11157,1043,12051,-33,74,-13,-39,107,-19
3.640089,-11167,993,12047,-22,80,-6,-28,113,-12
3.650090,-11183,989,12040,-7,86,0,-13,119,-6
3.660087,-11207,986,12013,24,94,12,18,127,6
3.670086,-11222,987,12003,36,97,19,30,130,13
3.680114,-11263,969,11951,45,96,24,39,129,18
3.690156,-11297,941,11922,41,91,23,35,124,17
3.700087,-11311,960,11901,27,75,14,21,108,8
3.710090,-11306,999,11884,17,67,7,11,100,1
3.720089,-11313,1021,11893,9,62,1,3,95,-5
3.730078,-11371,1034,11851,-2,47,-9,-8,80,-15
3.740079,-11397,1021,11831,-11,37,-13,-17,70,-19
3.750079,-11383,1052,11844,-27,15,-19,-33,48,-25
3.760079,-11346,1057,11878,-26,8,-18,-32,41,-24
3.770079,-11324,1061,11898,-8,2,-12,-14,35,-18
3.780079,-11309,1045,11925,0,1,-9,-6,34,-15
3.790080,-11313,1044,11912,7,2,-9,1,35,-15
3.800079,-11301,1047,11889,8,1,-11,2,34,-17
3.810079,-11301,1026,11885,5,0,-12,-1,33,-18
3.820078,-11273,1008,11905,-10,-1,-19,-16,32,-25
3.830089,-11256,1014,11923,-16,0,-21,-22,33,-27
3.840089,-11253,1008,11932,-16,9,-20,-22,42,-26
3.850090,-11273,954,11943,-6,14,-19,-12,47,-25
3.860087,-11309,945,11914,4,18,-18,-2,51,-24
3.870087,-11343,954,11885,15,15,-19,9,48,-25
3.880088,-11332,986,11899,16,14,-19,10,47,-25
3.890090,-11292,1011,11926,26,20,-15,20,53,-21
3.900087,-11253,1035,11958,33,29,-12,27,62,-18
3.910089,-11252,1025,11946,41,37,-11,35,70,-17
3.920089,-11274,1014,11930,44,51,-15,38,84,-21
3.930089,-11276,1030,11927,38,57,-19,32,90,-25
3.940090,-11239,1053,11945,30,72,-29,24,105,-35
3.950089,-11229,1040,11945,27,82,-32,21,115,-38
3.960088,-11241,1017,11931,26,105,-39,20,138,-45
3.970089,-11314,1009,11863,20,112,-43,14,145,-49
3.980089,-11331,1031,11844,10,116,-46,4,149,-52
3.990086,-11322,1023,11874,8,126,-42,2,159,-48
4.000091,-11331,1027,11887,19,135,-38,13,168,-44
4.010090,-11319,1022,11874,42,157,-38,36,190,-44
4.020089,-11350,942,11866,48,166,-37,42,199,-43
4.030090,-11387,912,11845,63,176,-33,57,209,-39
4.040090,-11423,938,11784,60,180,-34,54,213,-40
4.050089,-11456,959,11758,56,181,-36,50,214,-42
4.060086,-11523,1008,11686,41,178,-43,35,211,-49
4.070085,-11564,1007,11672,32,174,-47,26,207,-53
4.080089,-11593,992,11646,20,158,-53,14,191,-59
4.090089,-11605,1005,11631,10,148,-57,4,181,-63
4.100121,-11612,1012,11629,-11,129,-64,-17,162,-70
4.110149,-11642,964,11590,-19,121,-66,-25,154,-72
4.120125,-11634,992,11611,-25,115,-67,-31,148,-73
4.130084,-11637,994,11634,-18,105,-62,-24,138,-68
4.140087,-11628,1003,11633,-9,102,-57,-15,135,-63
4.150091,-11631,1021,11643,6,102,-41,0,135,-47
4.160125,-11604,1063,11630,14,102,-33,8,135,-39
4.170205,-11623,1065,11608,13,104,-27,7,137,-33
4.180099,-11633,1038,11610,11,104,-19,5,137,-25
4.190141,-11626,1032,11602,11,103,-16,5,136,-22
4.200078,-11652,994,11570,6,102,-12,0,135,-18
4.210077,-11663,982,11571,4,100,-11,-2,133,-17
4.220076,-11670,987,11586,18,98,-2,12,131,-8
4.230070,-11710,1000,11559,29,95,1,23,128,-5
4.240070,-11716,1007,11534,38,91,5,32,124,-1
4.250071,-11721,1006,11507,45,82,6,39,115,0
4.260066,-11719,1001,11505,42,77,4,36,110,-2
4.270069,-11696,1032,11522,28,69,1,22,102,-5
4.280071,-11699,1030,11525,21,66,0,15,99,-6
4.290068,-11696,1012,11544,18,66,-1,12,99,-7
4.300070,-11688,1016,11537,13,70,-3,7,103,-9
4.310068,-11688,1020,11535,14,71,-4,8,104,-10
4.320070,-11688,1073,11534,18,77,-6,12,110,-12
4.330152,-11694,1080,11535,21,81,-5,15,114,-11
4.340100,-11718,1097,11514,31,90,-3,25,123,-9
4.350090,-11736,1094,11495,34,92,-2,28,125,-8
4.360115,-11720,1091,11486,36,98,0,30,131,-6
4.370145,-11728,1076,11515,37,102,2,31,135,-4
4.380097,-11787,1052,11515,37,109,3,31,142,-3
4.390090,-11810,1049,11475,1,122,-13,-5,155,-19
4.400095,-11815,1020,11456,-2,125,-13,-8,158,-19
4.410089,-11800,1036,11444,5,126,-14,-1,159,-20
4.420094,-11709,1019,11460,17,128,-12,11,161,-18
4.430089,-11744,1007,11449,39,129,-7,33,162,-13
4.440086,-11788,973,11380,43,126,-12,37,159,-18
4.450084,-11837,981,11339,45,122,-11,39,155,-17
4.460084,-11893,1022,11306,8,112,-24,2,145,-30
4.470080,-11905,991,11347,2,108,-22,-4,141,-28
4.480086,-11898,1005,11349,16,101,-14,10,134,-20
4.490083,-11920,1029,11319,19,97,-12,13,130,-18
4.500086,-11923,1005,11295,15,93,-12,9,126,-18
4.510082,-11918,965,11273,0,81,-14,-6,114,-20
4.520086,-11920,958,11276,-4,75,-15,-10,108,-21
4.530083,-11945,950,11302,-13,64,-12,-19,97,-18
4.540089,-11949,950,11319,-9,60,-7,-15,93,-13
4.550088,-11966,957,11318,9,57,14,3,90,8
4.560092,-11923,1000,11286,19,55,22,13,88,16
4.570089,-11906,1044,11276,19,53,24,13,86,18
4.580089,-11906,1056,11276,6,51,18,0,84,12
4.590089,-11926,1027,11276,3,51,19,-3,84,13
4.600092,-11944,1028,11282,3,51,26,-3,84,20
4.610156,-11991,1045,11278,5,50,30,-1,83,24
4.620093,-12014,1019,11296,12,50,38,6,83,32
4.630089,-12001,1059,11257,27,45,48,21,78,42
4.640679,-11989,1113,11217,28,42,43,22,75,37
4.650088,-11998,1124,11218,10,27,30,4,60,24
4.660087,-11964,1107,11232,11,18,27,5,51,21
4.670086,-11919,1142,11240,13,10,19,7,43,13
4.680087,-11931,1122,11232,12,5,19,6,38,13
4.690088,-11993,1057,11230,9,2,18,3,35,12
4.700085,-11977,1075,11209,17,3,28,11,36,22
4.710089,-11971,1086,11207,17,8,31,11,41,25
4.720086,-11971,1143,11210,4,12,17,-2,45,11
4.730088,-11988,1124,11209,-2,12,8,-8,45,2
4.740085,-12010,1094,11202,-15,7,-7,-21,40,-13
4.750089,-12050,1053,11134,-31,1,-20,-37,34,-26
4.760086,-12072,1046,11097,-57,-9,-36,-63,24,-42
4.770088,-12128,973,11138,-107,-31,-53,-113,2,-59
4.780084,-12143,866,11205,-105,-40,-31,-111,-7,-37
4.790088,-12110,871,11246,-42,-54,31,-48,-21,25
4.800086,-12094,906,11231,-14,-59,57,-20,-26,51
4.810088,-12084,950,11227,31,-69,87,25,-36,81
4.820085,-11973,1203,11225,49,-70,85,43,-37,79
4.830088,-11940,1321,11208,50,-72,72,44,-39,66
4.840085,-11962,1270,11242,49,-72,41,43,-39,35
4.850089,-11980,1235,11228,58,-71,32,52,-38,26
4.860087,-11981,1202,11228,59,-74,18,53,-41,12
4.870085,-11997,1160,11221,54,-77,12,48,-44,6
4.880088,-12012,1146,11208,42,-80,7,36,-47,1
4.890087,-12029,1167,11217,23,-90,1,17,-57,-5
4.900085,-12009,1155,11228,20,-96,2,14,-63,-4
4.910089,-11996,1132,11240,34,-105,14,28,-72,8
4.920085,-11990,1103,11245,46,-109,23,40,-76,17
4.930088,-11964,1106,11259,59,-114,33,53,-81,27
4.940085,-11949,1133,11268,53,-115,29,47,-82,23
4.950089,-11947,1139,11280,47,-116,26,41,-83,20
4.960101,-11896,1170,11316,42,-112,25,36,-79,19
4.970090,-11891,1203,11340,48,-108,26,42,-75,20
4.980085,-11876,1237,11348,64,-98,31,58,-65,25
4.990090,-11868,1248,11353,71,-91,33,65,-58,27
5.000090,-11852,1247,11346,75,-80,29,69,-47,23
5.010089,-11838,1224,11323,72,-76,26,66,-43,20
5.020089,-11833,1220,11332,67,-71,24,61,-38,18
5.030090,-11840,1199,11341,62,-58,17,56,-25,11
5.040130,-11845,1203,11340,55,-53,14,49,-20,8
5.050158,-11862,1193,11332,35,-47,0,29,-14,-6
5.060173,-11887,1163,11332,29,-44,-4,23,-11,-10
5.070256,-11907,1129,11328,35,-41,0,29,-8,-6
5.080143,-11925,1183,11297,33,-41,1,27,-8,-5
5.090155,-11932,1192,11305,28,-42,3,22,-9,-3
5.100159,-11917,1217,11305,26,-43,10,20,-10,4
5.110157,-11925,1233,11298,28,-43,15,22,-10,9
5.120130,-11912,1232,11306,29,-42,24,23,-9,18
5.130193,-11909,1242,11303,26,-42,28,20,-9,22
5.140093,-11892,1236,11319,23,-40,30,17,-7,24
5.150088,-11892,1267,11315,27,-39,32,21,-6,26
5.160084,-11896,1286,11304,27,-39,31,21,-6,25
5.170116,-11904,1308,11280,22,-42,22,16,-9,16
5.180081,-11918,1310,11275,16,-44,17,10,-11,11
5.190089,-11930,1298,11272,1,-50,7,-5,-17,1
5.200097,-11915,1259,11274,-7,-54,2,-13,-21,-4
5.210087,-11892,1256,11290,-14,-57,-3,-20,-24,-9
5.220149,-11897,1246,11322,-26,-60,-7,-32,-27,-13
5.230091,-11904,1229,11323,-26,-61,-4,-32,-28,-10
5.240088,-11903,1191,11336,-20,-60,15,-26,-27,9
5.250137,-11858,1247,11338,-15,-57,20,-21,-24,14
5.260062,-11855,1250,11344,-18,-55,20,-24,-22,14
5.270060,-11887,1247,11322,-14,-52,19,-20,-19,13
5.280059,-11907,1253,11307,-14,-54,20,-20,-21,14
5.290058,-11918,1234,11318,-11,-61,22,-17,-28,16
5.300058,-11889,1234,11331,-5,-64,27,-11,-31,21
5.310059,-11887,1228,11334,7,-66,31,1,-33,25
5.320060,-11896,1226,11322,9,-69,29,3,-36,23
5.330060,-11890,1246,11309,4,-73,25,-2,-40,19
5.340060,-11907,1256,11313,-9,-82,14,-15,-49,8
5.350059,-11904,1280,11321,-11,-86,11,-17,-53,5
5.360060,-11960,1251,11309,0,-98,8,-6,-65,2
5.370060,-11986,1234,11305,10,-106,7,4,-73,1
5.380060,-11984,1183,11322,37,-129,9,31,-96,3
5.390060,-11989,1164,11311,52,-142,9,46,-109,3
5.400060,-11978,1181,11307,61,-155,8,55,-122,2
5.410060,-11985,1211,11301,66,-181,6,60,-148,0
5.420061,-11983,1240,11296,62,-193,7,56,-160,1
5.430059,-11954,1336,11298,30,-218,12,24,-185,6
5.440060,-11911,1365,11314,11,-229,16,5,-196,10
5.450060,-11875,1371,11350,-12,-243,27,-18,-210,21
5.460059,-11817,1357,11408,-16,-245,36,-22,-212,30
5.470058,-11791,1340,11433,-17,-244,47,-23,-211,41
5.480060,-11718,1286,11518,-12,-240,70,-18,-207,64
5.490060,-11677,1283,11556,-1,-233,82,-7,-200,76
5.500060,-11644,1276,11571,18,-212,102,12,-179,96
5.510060,-11597,1271,11590,26,-203,108,20,-170,102
5.520059,-11585,1288,11558,33,-193,107,27,-160,101
5.530060,-11577,1325,11543,20,-172,88,14,-139,82
5.540059,-11586,1324,11538,13,-160,76,7,-127,70
5.550060,-11572,1351,11550,-2,-147,56,-8,-114,50
5.560060,-11558,1341,11568,-10,-138,45,-16,-105,39
5.570059,-11545,1316,11589,-22,-117,31,-28,-84,25
5.580060,-11551,1303,11639,-29,-108,27,-35,-75,21
5.590060,-11543,1287,11640,-28,-101,24,-34,-68,18
5.600060,-11526,1340,11616,-29,-80,10,-35,-47,4
5.610062,-11523,1356,11621,-36,-69,1,-42,-36,-5
5.620059,-11513,1348,11675,-37,-49,-9,-43,-16,-15
5.630059,-11503,1321,11711,-30,-43,-10,-36,-10,-16
5.640059,-11509,1313,11714,-1,-32,-9,-7,1,-15
5.650060,-11541,1319,11665,9,-27,-11,3,6,-17
5.660060,-11570,1321,11632,14,-23,-12,8,10,-18
5.670058,-11614,1340,11601,16,-19,-15,10,14,-21
5.680060,-11623,1364,11596,15,-17,-16,9,16,-22
5.690060,-11624,1377,11585,13,-16,-14,7,17,-20
5.700061,-11619,1455,11535,9,-17,-16,3,16,-22
5.710058,-11642,1478,11523,-1,-17,-22,-7,16,-28
5.720060,-11681,1414,11551,1,-22,-22,-5,11,-28
5.730060,-11693,1384,11547,10,-24,-15,4,9,-21
5.740059,-11713,1344,11516,26,-32,4,20,1,-2
5.750060,-11723,1357,11507,19,-36,9,13,-3,3
5.760060,-11714,1327,11523,13,-41,25,7,-8,19
5.770060,-11692,1363,11531,20,-44,35,14,-11,29
5.780060,-11680,1435,11516,18,-46,36,12,-13,30
5.790061,-11669,1471,11525,2,-51,31,-4,-18,25
5.800059,-11656,1479,11527,-3,-53,29,-9,-20,23
5.810060,-11640,1458,11557,-4,-54,29,-10,-21,23
5.820060,-11628,1438,11568,0,-54,29,-6,-21,23
5.830060,-11631,1422,11575,6,-54,24,0,-21,18
5.840060,-11629,1387,11580,0,-54,22,-6,-21,16
5.850060,-11623,1376,11571,-3,-53,18,-9,-20,12
5.860060,-11629,1338,11575,-12,-52,8,-18,-19,2
5.870058,-11619,1319,11582,-12,-50,9,-18,-17,3
5.880061,-11592,1337,11605,-4,-48,7,-10,-15,1
5.890059,-11585,1331,11600,0,-44,5,-6,-11,-1
5.900060,-11583,1322,11598,12,-37,1,6,-4,-5
5.910060,-11616,1321,11593,16,-36,1,10,-3,-5
5.920060,-11600,1328,11595,22,-35,3,16,-2,-3
5.930060,-11581,1362,11598,26,-29,8,20,4,2
5.940059,-11583,1374,11596,21,-25,9,15,8,3
5.950058,-11588,1373,11581,13,-19,10,7,14,4
5.960059,-11613,1387,11574,8,-18,10,2,15,4
5.970059,-11600,1391,11574,2,-16,10,-4,17,4
5.980059,-11609,1374,11589,1,-12,10,-5,21,4
5.990059,-11617,1359,11583,5,-10,9,-1,23,3
6.000059,-11634,1371,11559,8,-10,8,2,23,2
6.010060,-11643,1394,11562,8,-11,7,2,22,1
6.020059,-11648,1405,11552,9,-14,3,3,19,-3
6.030130,-11667,1434,11548,7,-17,0,1,16,-6
6.040076,-11663,1465,11539,2,-20,-4,-4,13,-10
6.050084,-11634,1480,11546,-7,-24,-8,-13,9,-14
6.060063,-11645,1495,11534,-7,-26,-8,-13,7,-14
6.070062,-11680,1462,11522,-15,-30,-10,-21,3,-16
6.080069,-11691,1445,11513,-20,-34,-13,-26,-1,-19
6.090068,-11692,1427,11522,-26,-44,-18,-32,-11,-24
6.100060,-11676,1420,11548,-24,-47,-16,-30,-14,-22
6.110058,-11650,1444,11548,-22,-49,-15,-28,-16,-21
6.120058,-11624,1453,11551,-10,-49,-11,-16,-16,-17
6.130059,-11616,1452,11539,-11,-47,-12,-17,-14,-18
6.140059,-11623,1398,11552,-19,-40,-15,-25,-7,-21
6.150059,-11625,1349,11575,-18,-40,-11,-24,-7,-17
6.160059,-11628,1330,11577,4,-40,8,-2,-7,2
6.170059,-11592,1416,11580,15,-40,8,9,-7,2
6.180059,-11582,1437,11587,9,-39,4,3,-6,-2
6.190059,-11589,1381,11611,14,-34,3,8,-1,-3
6.200061,-11587,1384,11603,22,-32,3,16,1,-3
6.210124,-11597,1392,11590,29,-28,7,23,5,1
6.220061,-11596,1393,11587,30,-25,8,24,8,2
6.230059,-11600,1380,11589,29,-20,9,23,13,3
6.240058,-11625,1344,11552,23,-10,8,17,23,2
6.250058,-11635,1347,11524,15,-5,4,9,28,-2
6.260060,-11681,1349,11505,-19,0,-15,-25,33,-21
6.270058,-11706,1352,11524,-32,-2,-22,-38,31,-28
6.280060,-11696,1359,11556,-39,-21,-21,-45,12,-27
6.290058,-11693,1335,11571,-31,-28,-12,-37,5,-18
6.300058,-11697,1373,11544,-23,-33,-3,-29,0,-9
6.310059,-11717,1382,11509,-30,-47,1,-36,-14,-5
6.320060,-11687,1424,11521,-27,-53,2,-33,-20,-4
6.330059,-11610,1436,11581,-13,-54,2,-19,-21,-4
6.340059,-11605,1431,11586,1,-48,3,-5,-15,-3
6.350059,-11617,1441,11563,14,-36,6,8,-3,0
6.360059,-11607,1404,11533,13,-30,5,7,3,-1
6.370059,-11625,1390,11519,11,-20,3,5,13,-3
6.380059,-11667,1393,11522,-7,-7,-2,-13,26,-8
6.390059,-11662,1389,11528,-14,-3,-2,-20,30,-8
6.400059,-11674,1397,11541,-18,-1,4,-24,32,-2
6.410058,-11668,1455,11530,-19,-3,3,-25,30,-3
6.420059,-11654,1489,11525,-26,-12,-2,-32,21,-8
6.430058,-11686,1438,11546,-22,-17,0,-28,16,-6
6.440059,-11684,1400,11552,-11,-17,7,-17,16,1
6.450058,-11671,1403,11527,-7,-19,10,-13,14,4
6.460059,-11661,1392,11529,-7,-20,10,-13,13,4
6.470057,-11664,1385,11539,-1,-25,14,-7,8,8
6.480059,-11661,1358,11563,9,-28,20,3,5,14
6.490058,-11653,1372,11557,18,-26,24,12,7,18
6.500059,-11640,1482,11508,7,-24,4,1,9,-2
6.510058,-11650,1464,11527,-4,-25,-6,-10,8,-12
6.520059,-11637,1454,11574,-9,-26,-12,-15,7,-18
6.530058,-11631,1451,11573,-9,-24,-13,-15,9,-19
6.540059,-11637,1419,11590,-13,-23,-8,-19,10,-14
6.550058,-11636,1398,11586,-14,-21,-4,-20,12,-10
6.560059,-11638,1385,11582,-14,-20,0,-20,13,-6
6.570058,-11633,1371,11592,-4,-19,7,-10,14,1
6.580058,-11621,1374,11594,6,-19,11,0,14,5
6.590058,-11629,1393,11571,24,-17,14,18,16,8
6.600059,-11641,1397,11561,28,-15,12,22,18,6
6.610058,-11638,1402,11532,26,-14,3,20,19,-3
6.620059,-11656,1419,11520,19,-14,-3,13,19,-9
6.630058,-11667,1416,11519,13,-15,-9,7,18,-15
6.640059,-11675,1400,11513,2,-17,-15,-4,16,-21
6.650057,-11674,1384,11531,0,-17,-14,-6,16,-20
6.660059,-11660,1374,11555,8,-13,-9,2,20,-15
6.670057,-11669,1421,11538,18,-11,-5,12,22,-11
6.680059,-11696,1397,11521,15,-9,0,9,24,-6
6.690057,-11700,1411,11507,16,-9,10,10,24,4
6.700059,-11698,1436,11507,16,-9,15,10,24,9
6.710057,-11693,1414,11504,12,-10,25,6,23,19
6.720058,-11694,1431,11489,8,-10,27,2,23,21
6.730067,-11704,1428,11487,-3,-18,25,-9,15,19
6.740059,-11717,1435,11503,-4,-21,23,-10,12,17
6.750057,-11718,1453,11498,-2,-24,23,-8,9,17
6.760059,-11714,1481,11495,5,-30,24,-1,3,18
6.770057,-11713,1488,11489,10,-33,25,4,0,19
6.780059,-11702,1508,11493,16,-37,26,10,-4,20
6.790057,-11697,1510,11500,17,-39,26,11,-6,20
6.800076,-11679,1497,11507,20,-41,24,14,-8,18
6.810083,-11667,1492,11504,19,-40,21,13,-7,15
6.820065,-11674,1496,11488,11,-40,17,5,-7,11
6.830058,-11684,1486,11518,-15,-40,6,-21,-7,0
6.840059,-11667,1488,11538,-21,-40,3,-27,-7,-3
6.850058,-11677,1468,11541,-20,-38,0,-26,-5,-6
6.860059,-11690,1455,11525,-17,-37,-1,-23,-4,-7
6.870057,-11696,1441,11527,-17,-38,-3,-23,-5,-9
6.880059,-11661,1429,11548,-17,-38,-2,-23,-5,-8
6.890058,-11650,1441,11557,-17,-37,-2,-23,-4,-8
6.900059,-11641,1482,11556,-14,-32,-1,-20,1,-7
6.910058,-11650,1481,11552,-12,-29,-2,-18,4,-8
6.920059,-11643,1482,11548,-6,-25,-3,-12,8,-9
6.930058,-11629,1465,11557,-2,-22,-4,-8,11,-10
6.940058,-11642,1452,11560,2,-18,-5,-4,15,-11
6.950057,-11656,1416,11540,8,-13,-9,2,20,-15
6.960058,-11657,1421,11529,6,-11,-11,0,22,-17
6.970058,-11688,1413,11498,6,-7,-9,0,26,-15
6.980058,-11689,1411,11497,5,-7,-8,-1,26,-14
6.990057,-11694,1410,11489,11,-11,-5,5,22,-11
7.000058,-11700,1415,11485,13,-13,-3,7,20,-9
7.010057,-11701,1431,11490,15,-14,-1,9,19,-7
7.020081,-11705,1420,11481,11,-15,1,5,18,-5
7.030059,-11706,1413,11478,4,-17,0,-2,16,-6
7.040059,-11721,1432,11472,-14,-23,-6,-20,10,-12
7.050057,-11729,1469,11469,-24,-27,-9,-30,6,-15
7.060062,-11733,1504,11476,-35,-32,-10,-41,1,-16
7.070058,-11708,1544,11496,-33,-34,-8,-39,-1,-14
7.080059,-11692,1553,11506,-28,-36,-7,-34,-3,-13
7.090057,-11685,1499,11504,-13,-35,-4,-19,-2,-10
7.100058,-11687,1468,11504,-8,-35,-2,-14,-2,-8
7.110058,-11674,1426,11513,1,-33,5,-5,0,-1
7.120058,-11679,1430,11527,6,-33,10,0,0,4
7.130058,-11681,1425,11523,17,-31,20,11,2,14
7.140059,-11688,1430,11496,20,-30,23,14,3,17
7.150058,-11683,1430,11492,20,-31,24,14,2,18
7.160059,-11692,1433,11481,15,-32,23,9,1,17
7.170058,-11690,1431,11487,12,-32,24,6,1,18
7.180058,-11680,1441,11508,9,-31,28,3,2,22
7.190058,-11680,1452,11523,9,-30,28,3,3,22
7.200059,-11683,1453,11523,10,-29,28,4,4,22
7.210057,-11654,1438,11523,9,-28,24,3,5,18
7.220058,-11659,1441,11513,7,-25,22,1,8,16
7.230058,-11645,1467,11530,1,-18,18,-5,15,12
7.240059,-11639,1489,11527,0,-16,15,-6,17,9
7.250057,-11643,1498,11528,-2,-11,4,-8,22,-2
7.260057,-11663,1532,11493,-4,-12,-3,-10,21,-9
7.270058,-11674,1529,11480,-9,-13,-12,-15,20,-18
7.280058,-11686,1513,11488,-16,-17,-27,-22,16,-33
7.290057,-11674,1511,11499,-18,-18,-31,-24,15,-37
7.300058,-11693,1493,11494,-22,-16,-33,-28,17,-39
7.310057,-11700,1489,11489,-24,-16,-32,-30,17,-38
7.320058,-11708,1495,11491,-22,-16,-28,-28,17,-34
7.330057,-11703,1493,11509,-15,-15,-24,-21,18,-30
7.340057,-11703,1488,11507,-6,-15,-19,-12,18,-25
7.350057,-11720,1447,11509,16,-11,-1,10,22,-7
7.360058,-11721,1452,11493,31,-9,7,25,24,1
7.370057,-11732,1493,11451,30,-9,15,24,24,9
7.380081,-11747,1481,11456,28,-11,17,22,22,11
7.390059,-11746,1484,11449,30,-15,18,24,18,12
7.400059,-11751,1489,11451,32,-16,18,26,17,12
7.410057,-11747,1479,11446,33,-19,19,27,14,13
7.420058,-11742,1473,11430,28,-25,16,22,8,10
7.430057,-11766,1479,11434,16,-30,13,10,3,7
7.440058,-11767,1487,11437,-10,-41,5,-16,-8,-1
7.450057,-11744,1506,11442,-17,-45,4,-23,-12,-2
7.460058,-11744,1501,11446,-22,-48,2,-28,-15,-4
7.470057,-11734,1467,11456,-25,-55,0,-31,-22,-6
7.480058,-11717,1440,11474,-23,-57,-1,-29,-24,-7
7.490057,-11705,1423,11486,-31,-60,-4,-37,-27,-10
7.500058,-11696,1427,11484,-39,-61,-7,-45,-28,-13
7.510057,-11685,1437,11497,-45,-59,-10,-51,-26,-16
7.520057,-11668,1490,11522,-43,-56,-10,-49,-23,-16
7.530056,-11659,1514,11528,-38,-53,-9,-44,-20,-15
7.540058,-11656,1506,11522,-31,-46,-10,-37,-13,-16
7.550056,-11651,1486,11528,-26,-43,-9,-32,-10,-15
7.560058,-11658,1459,11526,-14,-36,-7,-20,-3,-13
7.570057,-11674,1459,11520,-8,-33,-5,-14,0,-11
7.580058,-11683,1465,11526,-1,-28,-5,-7,5,-11
7.590057,-11672,1507,11519,2,-26,-5,-4,7,-11
7.600058,-11674,1510,11512,8,-24,-2,2,9,-8
7.610057,-11688,1493,11502,18,-16,4,12,17,-2
7.620058,-11693,1478,11491,21,-14,7,15,19,1
7.630057,-11705,1437,11494,16,-12,9,10,21,3
7.640070,-11719,1427,11479,14,-12,8,8,21,2
7.650058,-11724,1434,11460,10,-14,5,4,19,-1
7.660058,-11750,1485,11445,7,-18,2,1,15,-4
7.670057,-11757,1509,11430,7,-23,1,1,10,-5
7.680058,-11761,1533,11422,5,-30,0,-1,3,-6
7.690058,-11762,1529,11418,0,-34,-2,-6,-1,-8
7.700057,-11757,1525,11425,-14,-41,-8,-20,-8,-14
7.710058,-11724,1478,11456,-17,-42,-9,-23,-9,-15
7.720058,-11713,1462,11464,-17,-42,-11,-23,-9,-17
7.730058,-11724,1446,11474,-15,-43,-9,-21,-10,-15
7.740058,-11724,1454,11486,-12,-43,-4,-18,-10,-10
7.750057,-11692,1507,11494,4,-40,10,-2,-7,4
7.760058,-11666,1509,11506,14,-35,17,8,-2,11
7.770057,-11668,1504,11513,40,-26,29,34,7,23
7.780058,-11715,1481,11462,38,-24,28,32,9,22
7.790058,-11732,1471,11463,30,-26,24,24,7,18
7.800057,-11712,1500,11477,8,-28,13,2,5,7
7.810058,-11711,1517,11470,4,-28,9,-2,5,3
7.820058,-11719,1554,11468,-2,-31,2,-8,2,-4
7.830056,-11728,1560,11464,-4,-32,0,-10,1,-6
7.840058,-11741,1566,11442,-8,-36,-4,-14,-3,-10
7.850057,-11728,1542,11448,-10,-39,-7,-16,-6,-13
7.860058,-11714,1504,11470,-11,-41,-8,-17,-8,-14
7.870057,-11696,1459,11495,-11,-41,-8,-17,-8,-14
7.880058,-11703,1449,11510,-10,-39,-5,-16,-6,-11
7.890057,-11697,1449,11509,-7,-35,1,-13,-2,-5
7.900058,-11737,1462,11474,-3,-34,2,-9,-1,-4
7.910057,-11734,1455,11456,-3,-35,3,-9,-2,-3
7.920057,-11724,1459,11467,-6,-40,1,-12,-7,-5
7.930058,-11714,1465,11478,-3,-42,0,-9,-9,-6
7.940057,-11683,1477,11489,0,-41,-4,-6,-8,-10
7.950058,-11680,1474,11487,-3,-40,-4,-9,-7,-10
7.960058,-11689,1463,11491,-4,-38,-4,-10,-5,-10
7.970057,-11707,1478,11474,-3,-40,-4,-9,-7,-10
7.980057,-11715,1469,11485,-2,-42,-3,-8,-9,-9
7.990057,-11710,1493,11488,6,-43,0,0,-10,-6
8.000057,-11711,1492,11475,7,-43,0,1,-10,-6
8.010057,-11744,1504,11449,7,-48,-2,1,-15,-8
8.020057,-11738,1518,11457,2,-52,-5,-4,-19,-11
8.030058,-11734,1534,11483,-1,-59,-4,-7,-26,-10
8.040058,-11718,1542,11496,1,-62,-3,-5,-29,-9
8.050058,-11702,1523,11499,5,-63,-3,-1,-30,-9
8.060056,-11692,1508,11491,5,-63,-1,-1,-30,-7
8.070056,-11715,1491,11493,0,-62,1,-6,-29,-5
8.080058,-11765,1338,11540,32,-62,56,26,-29,50
8.090057,-11720,1448,11498,51,-62,77,45,-29,71
8.100058,-11677,1579,11473,29,-61,72,23,-28,66
8.110058,-11663,1578,11491,26,-60,62,20,-27,56
8.120057,-11660,1596,11506,30,-60,63,24,-27,57
8.130058,-11639,1634,11536,26,-56,53,20,-23,47
8.140057,-11607,1656,11539,25,-52,49,19,-19,43
8.150057,-11589,1680,11534,17,-42,36,11,-9,30
8.160058,-11643,1621,11505,12,-39,30,6,-6,24
8.170057,-11656,1608,11485,7,-37,24,1,-4,18
8.180057,-11648,1581,11518,-4,-35,14,-10,-2,8
8.190057,-11635,1590,11520,-5,-33,10,-11,0,4
8.200058,-11637,1614,11517,-9,-28,4,-15,5,-2
8.210057,-11649,1606,11498,-10,-26,0,-16,7,-6
8.220057,-11663,1594,11491,-17,-26,-12,-23,7,-18
8.230058,-11668,1550,11511,-20,-25,-17,-26,8,-23
8.240058,-11668,1522,11517,-24,-25,-20,-30,8,-26
8.250057,-11704,1424,11516,-15,-24,-6,-21,9,-12
8.260056,-11724,1445,11500,-3,-24,4,-9,9,-2
8.270057,-11692,1547,11481,-2,-24,12,-8,9,6
8.280058,-11680,1544,11514,-6,-24,13,-12,9,7
8.290056,-11669,1564,11515,-6,-23,5,-12,10,-1
8.300058,-11665,1550,11517,-7,-20,2,-13,13,-4
8.310057,-11669,1501,11524,-6,-17,3,-12,16,-3
8.320057,-11678,1492,11512,-7,-11,2,-13,22,-4
8.330057,-11669,1493,11520,-8,-7,1,-14,26,-5
8.340057,-11679,1525,11525,-5,-2,-1,-11,31,-7
8.350057,-11694,1540,11506,-2,0,-2,-8,33,-8
8.360057,-11718,1559,11472,-1,-3,-1,-7,30,-7
8.370057,-11753,1567,11455,-1,-8,-3,-7,25,-9
8.380056,-11767,1543,11458,-1,-11,-3,-7,22,-9
8.390057,-11758,1531,11460,-1,-20,-3,-7,13,-9
8.400058,-11758,1530,11455,0,-23,-2,-6,10,-8
8.410057,-11765,1533,11454,7,-30,0,1,3,-6
8.420057,-11763,1536,11440,9,-34,0,3,-1,-6
8.430057,-11762,1526,11435,6,-38,-2,0,-5,-8
8.440057,-11750,1518,11461,0,-47,-5,-6,-14,-11
8.450057,-11733,1534,11474,-2,-50,-3,-8,-17,-9
8.460056,-11734,1553,11478,7,-54,7,1,-21,1
8.470068,-11723,1574,11486,21,-54,14,15,-21,8
8.480060,-11718,1589,11495,40,-51,26,34,-18,20
8.490057,-11720,1538,11494,43,-51,28,37,-18,22
8.500057,-11718,1524,11480,39,-50,29,33,-17,23
8.510222,-11685,1521,11484,18,-52,25,12,-19,19
8.520544,-11694,1562,11483,9,-52,22,3,-19,16
8.530164,-11703,1634,11479,2,-52,19,-4,-19,13
8.540092,-11710,1642,11476,2,-54,18,-4,-21,12
8.550088,-11712,1626,11470,6,-57,14,0,-24,8
8.560075,-11684,1565,11479,8,-58,10,2,-25,4
8.570071,-11680,1538,11486,7,-60,8,1,-27,2
8.580073,-11669,1525,11520,4,-57,4,-2,-24,-2
8.590073,-11655,1531,11522,-1,-54,3,-7,-21,-3
8.600072,-11664,1563,11509,-4,-50,3,-10,-17,-3
8.610179,-11666,1582,11506,-3,-47,4,-9,-14,-2
8.620086,-11671,1594,11494,0,-47,2,-6,-14,-4
8.630076,-11679,1581,11490,1,-46,1,-5,-13,-5
8.640085,-11671,1590,11495,0,-46,0,-6,-13,-6
8.650056,-11680,1595,11504,-4,-44,-2,-10,-11,-8
8.660055,-11678,1613,11501,-4,-43,-2,-10,-10,-8
8.670055,-11680,1628,11493,-3,-41,-3,-9,-8,-9
8.680056,-11680,1655,11502,-4,-39,-3,-10,-6,-9
8.690055,-11676,1655,11491,-7,-39,-4,-13,-6,-10
8.700056,-11665,1646,11490,-18,-39,-5,-24,-6,-11
8.710057,-11670,1633,11496,-20,-37,-7,-26,-4,-13
8.720057,-11677,1620,11503,-12,-37,-6,-18,-4,-12
8.730056,-11677,1616,11518,-3,-37,-4,-9,-4,-10
8.740057,-11673,1605,11525,13,-36,2,7,-3,-4
8.750057,-11676,1574,11507,20,-35,4,14,-2,-2
8.760056,-11680,1562,11490,21,-36,7,15,-3,1
8.770057,-11681,1554,11499,18,-35,10,12,-2,4
8.780056,-11686,1559,11494,16,-36,10,10,-3,4
8.790056,-11694,1558,11470,11,-40,5,5,-7,-1
8.800057,-11693,1552,11457,6,-42,3,0,-9,-3
8.810057,-11693,1555,11456,-5,-48,0,-11,-15,-6
8.820057,-11690,1579,11477,-7,-51,-1,-13,-18,-7
8.830057,-11688,1602,11502,-8,-51,1,-14,-18,-5
8.840057,-11659,1613,11514,-10,-49,5,-16,-16,-1
8.850056,-11645,1607,11520,-10,-47,6,-16,-14,0
8.860057,-11639,1593,11506,-16,-44,7,-22,-11,1
8.870055,-11636,1582,11503,-20,-42,7,-26,-9,1
8.880057,-11636,1571,11503,-24,-40,5,-30,-7,-1
8.890057,-11646,1608,11509,-30,-37,2,-36,-4,-4
8.900057,-11642,1636,11501,-29,-37,0,-35,-4,-6
8.910057,-11628,1648,11510,-15,-33,0,-21,0,-6
8.920056,-11634,1641,11502,-6,-31,0,-12,2,-6
8.930056,-11636,1632,11510,2,-30,-1,-4,3,-7
8.940057,-11640,1555,11527,5,-28,-3,-1,5,-9
8.950057,-11635,1540,11529,10,-27,-5,4,6,-11
8.960056,-11632,1549,11516,6,-22,-6,0,11,-12
8.970056,-11638,1550,11517,2,-19,-6,-4,14,-12
8.980057,-11665,1542,11506,-6,-15,-6,-12,18,-12
8.990056,-11684,1537,11505,-10,-14,-6,-16,19,-12
9.000057,-11683,1539,11508,-11,-11,-4,-17,22,-10
9.010058,-11684,1553,11514,-9,-12,-3,-15,21,-9
9.020057,-11682,1561,11498,-7,-11,-1,-13,22,-7
9.030056,-11675,1562,11523,-3,-10,4,-9,23,-2
9.040056,-11688,1570,11506,1,-8,6,-5,25,0
9.050057,-11698,1594,11483,7,-7,12,1,26,6
9.060056,-11694,1604,11478,7,-9,13,1,24,7
9.070055,-11695,1613,11463,3,-9,11,-3,24,5
9.080057,-11698,1625,11466,-4,-11,10,-10,22,4
9.090056,-11695,1604,11475,-4,-11,11,-10,22,5
9.100056,-11667,1682,11465,-9,-14,3,-15,19,-3
9.110055,-11673,1644,11473,-19,-14,-3,-25,19,-9
9.120056,-11689,1633,11476,-15,-13,-7,-21,20,-13
9.130057,-11714,1654,11459,-13,-14,-5,-19,19,-11
9.140056,-11724,1629,11463,-10,-16,-4,-16,17,-10
9.150056,-11721,1624,11440,-13,-21,-10,-19,12,-16
9.160056,-11734,1571,11460,-12,-23,-5,-18,10,-11
9.170056,-11735,1622,11433,-6,-30,1,-12,3,-5
9.180056,-11733,1621,11441,-9,-35,1,-15,-2,-5
9.190057,-11727,1619,11457,-8,-45,-1,-14,-12,-7
9.200057,-11724,1643,11449,-10,-48,-2,-16,-15,-8
9.210056,-11723,1639,11437,-11,-52,-3,-17,-19,-9
9.220056,-11684,1656,11463,-15,-57,-4,-21,-24,-10
9.230056,-11670,1622,11486,-16,-56,-1,-22,-23,-7
9.240056,-11671,1603,11475,-8,-53,1,-14,-20,-5
9.250057,-11683,1582,11469,-10,-54,1,-16,-21,-5
9.260055,-11684,1566,11482,-18,-52,-1,-24,-19,-7
9.270055,-11673,1548,11506,-23,-51,-4,-29,-18,-10
9.280056,-11660,1566,11520,-26,-49,-4,-32,-16,-10
9.290055,-11641,1596,11536,-26,-42,-3,-32,-9,-9
9.300055,-11648,1601,11543,-23,-38,-2,-29,-5,-8
9.310056,-11633,1601,11546,-13,-29,1,-19,4,-5
9.320056,-11634,1591,11531,-8,-24,2,-14,9,-4
9.330056,-11641,1585,11528,-12,-19,-3,-18,14,-9
9.340057,-11661,1588,11505,-16,-19,-6,-22,14,-12
9.350056,-11686,1600,11497,-19,-19,-10,-25,14,-16
9.360056,-11704,1610,11480,-19,-22,-14,-25,11,-20
9.370056,-11702,1601,11482,-15,-22,-14,-21,11,-20
9.380057,-11708,1597,11493,-2,-24,-10,-8,9,-16
9.390056,-11713,1590,11501,5,-27,-8,-1,6,-14
9.400057,-11700,1587,11500,11,-28,-6,5,5,-12
9.410056,-11698,1595,11468,14,-29,-3,8,4,-9
9.420057,-11702,1599,11462,6,-30,-5,0,3,-11
9.430055,-11698,1619,11486,-8,-34,-5,-14,-1,-11
9.440056,-11694,1620,11494,-9,-34,-4,-15,-1,-10
9.450056,-11690,1617,11492,-3,-33,0,-9,0,-6
9.460056,-11668,1586,11500,-3,-32,2,-9,1,-4
9.470055,-11665,1575,11501,0,-32,6,-6,1,0
9.480056,-11649,1560,11527,10,-24,16,4,9,10
9.490056,-11661,1568,11510,17,-21,20,11,12,14
9.500056,-11684,1597,11478,17,-18,25,11,15,19
9.510056,-11689,1607,11466,13,-18,25,7,15,19
9.520056,-11686,1624,11464,5,-20,21,-1,13,15
9.530056,-11711,1627,11450,1,-23,15,-5,10,9
9.540056,-11721,1643,11445,-5,-26,9,-11,7,3
9.550064,-11715,1638,11451,-14,-35,0,-20,-2,-6
9.560056,-11717,1630,11456,-11,-38,-2,-17,-5,-8
9.570056,-11723,1629,11447,-5,-41,-3,-11,-8,-9
9.580057,-11722,1617,11455,-7,-44,-3,-13,-11,-9
9.590056,-11717,1594,11472,-12,-47,0,-18,-14,-6
9.600056,-11680,1540,11487,-11,-47,2,-17,-14,-4
9.610159,-11672,1539,11495,-10,-46,5,-16,-13,-1
9.620059,-11681,1542,11497,-3,-41,12,-9,-8,6
9.630060,-11676,1556,11484,0,-41,16,-6,-8,10
9.640067,-11683,1574,11478,-1,-41,21,-7,-8,15
9.650060,-11676,1575,11492,-1,-41,24,-7,-8,18
9.660058,-11668,1586,11497,0,-40,24,-6,-7,18
9.670056,-11670,1646,11473,3,-39,25,-3,-6,19
9.680056,-11665,1673,11474,4,-39,23,-2,-6,17
9.690057,-11651,1711,11483,8,-37,21,2,-4,15
9.700056,-11648,1709,11480,10,-36,20,4,-3,14
9.710057,-11639,1711,11492,12,-34,13,6,-1,7
9.720055,-11640,1715,11498,14,-33,8,8,0,2
9.730057,-11658,1715,11495,13,-32,3,7,1,-3
9.740056,-11666,1701,11494,15,-33,-6,9,0,-12
9.750057,-11666,1694,11487,18,-34,-8,12,-1,-14
9.760056,-11657,1669,11483,18,-32,-12,12,1,-18
9.770056,-11660,1652,11489,20,-31,-12,14,2,-18
9.780056,-11668,1648,11488,25,-30,-9,19,3,-15
9.790058,-11676,1605,11484,25,-29,-8,19,4,-14
9.800056,-11674,1593,11485,24,-30,-6,18,3,-12
9.810057,-11667,1588,11482,13,-30,-4,7,3,-10
9.820065,-11671,1582,11481,6,-30,-5,0,3,-11
9.830065,-11674,1576,11497,-2,-30,-6,-8,3,-12
9.840056,-11682,1599,11490,-4,-31,-8,-10,2,-14
9.850057,-11690,1608,11492,-7,-32,-8,-13,1,-14
9.860056,-11669,1600,11486,-19,-32,-5,-25,1,-11
9.870055,-11675,1586,11480,-27,-31,-4,-33,2,-10
9.880068,-11676,1592,11461,-40,-30,-7,-46,3,-13
9.890057,-11701,1624,11477,-44,-27,-11,-50,6,-17
9.900056,-11698,1639,11484,-34,-27,-12,-40,6,-18
9.910058,-11678,1673,11504,-24,-28,-8,-30,5,-14
9.920056,-11665,1664,11506,-16,-29,-3,-22,4,-9
9.930057,-11669,1646,11493,-4,-29,2,-10,4,-4
9.940055,-11676,1643,11482,-5,-30,3,-11,3,-3
9.950057,-11670,1645,11472,-13,-31,-2,-19,2,-8
9.960056,-11672,1645,11472,-19,-33,-7,-25,0,-13
9.970057,-11678,1642,11474,-31,-35,-13,-37,-2,-19
9.980054,-11676,1638,11499,-31,-35,-12,-37,-2,-18
9.990057,-11657,1639,11514,-27,-34,-12,-33,-1,-18
10.000083,-11652,1659,11518,-15,-28,-8,-21,5,-14
10.010059,-11653,1653,11526,-5,-25,-4,-11,8,-10
10.020056,-11674,1629,11513,19,-19,1,13,14,-5
10.030057,-11673,1620,11519,26,-17,4,20,16,-2
10.040055,-11666,1605,11509,23,-12,2,17,21,-4
10.050057,-11664,1589,11501,15,-10,1,9,23,-5
10.060057,-11667,1597,11493,6,-8,0,0,25,-6
10.070055,-11692,1616,11472,-4,-5,0,-10,28,-6
10.080087,-11703,1624,11469,-6,-5,0,-12,28,-6
10.090066,-11729,1618,11454,-11,-8,-2,-17,25,-8
10.100056,-11740,1609,11439,-11,-13,-5,-17,20,-11
10.110056,-11758,1615,11418,-11,-19,-9,-17,14,-15
10.120055,-11742,1616,11418,-18,-30,-15,-24,3,-21
10.130056,-11738,1610,11440,-23,-35,-16,-29,-2,-22
10.140107,-11725,1608,11460,-31,-41,-20,-37,-8,-26
10.150083,-11718,1604,11466,-32,-43,-20,-38,-10,-26
10.160083,-11694,1612,11479,-29,-44,-17,-35,-11,-23
10.170084,-11684,1624,11481,-24,-43,-14,-30,-10,-20
10.180083,-11679,1626,11489,-19,-40,-12,-25,-7,-18
10.190085,-11688,1638,11493,-15,-38,-10,-21,-5,-16
10.200084,-11678,1649,11504,-11,-36,-9,-17,-3,-15
10.210084,-11669,1641,11507,-5,-29,-6,-11,4,-12
10.220082,-11654,1622,11511,-2,-25,-5,-8,8,-11
10.230083,-11655,1610,11520,2,-18,-2,-4,15,-8
10.240112,-11657,1613,11517,4,-16,-2,-2,17,-8
10.250084,-11668,1619,11505,7,-15,-2,1,18,-8
10.260083,-11683,1612,11493,10,-12,-3,4,21,-9
10.270077,-11691,1618,11475,12,-11,-5,6,22,-11
10.280082,-11699,1595,11475,14,-10,-8,8,23,-14
10.290084,-11699,1577,11478,15,-11,-9,9,22,-15
10.300084,-11704,1554,11478,9,-12,-10,3,21,-16
10.310083,-11723,1567,11451,2,-13,-12,-4,20,-18
10.320083,-11725,1585,11439,-3,-13,-13,-9,20,-19
10.330083,-11740,1624,11449,-10,-15,-15,-16,18,-21
10.340083,-11747,1625,11434,-8,-17,-15,-14,16,-21
10.350083,-11761,1607,11430,-7,-24,-18,-13,9,-24
10.360083,-11763,1608,11446,-5,-28,-19,-11,5,-25
10.370083,-11757,1592,11458,8,-34,-22,2,-1,-28
10.380083,-11760,1618,11452,14,-37,-23,8,-4,-29
10.390165,-11770,1619,11442,17,-41,-25,11,-8,-31
10.400109,-11756,1636,11416,16,-50,-29,10,-17,-35
10.410088,-11746,1607,11421,11,-55,-32,5,-22,-38
10.420084,-11696,1617,11450,19,-54,-34,13,-21,-40
10.430084,-11693,1620,11440,24,-44,-35,18,-11,-41
10.440079,-11741,1572,11397,15,-26,-54,9,7,-60
10.450079,-11800,1591,11364,0,-24,-62,-6,9,-68
10.460077,-11780,1568,11394,-9,-23,-62,-15,10,-68
10.470077,-11722,1582,11383,8,0,-51,2,33,-57
10.480077,-11728,1624,11324,2,15,-56,-4,48,-62
10.490077,-11744,1612,11304,-26,45,-72,-32,78,-78
10.500078,-11780,1573,11363,-33,56,-73,-39,89,-79
10.510077,-11745,1567,11369,-27,71,-71,-33,104,-77
10.520077,-11774,1706,11318,-1,115,-76,-7,148,-82
10.530079,-11759,1723,11305,-7,126,-87,-13,159,-93
10.540077,-11778,1710,11286,3,151,-109,-3,184,-115
10.550084,-11785,1691,11278,12,170,-121,6,203,-127
10.560085,-11818,1667,11315,26,198,-125,20,231,-131
10.570082,-11817,1599,11375,48,209,-123,42,242,-129
10.580083,-11898,1645,11326,64,208,-131,58,241,-137
10.590083,-11884,1577,11404,81,182,-133,75,215,-139
10.600079,-11885,1533,11373,96,170,-127,90,203,-133
10.610084,-11854,1483,11342,108,166,-115,102,199,-121
10.620082,-11837,1460,11280,102,171,-110,96,204,-116
10.630085,-11818,1409,11295,87,197,-96,81,230,-102
10.640083,-11926,1427,11253,66,209,-90,60,242,-96
10.650083,-11896,1449,11244,45,215,-90,39,248,-96
10.660082,-11863,1471,11209,26,240,-91,20,273,-97
10.670083,-11900,1506,11217,15,248,-95,9,281,-101
10.680083,-11916,1518,11279,3,247,-102,-3,280,-108
10.690083,-11891,1512,11307,5,234,-105,-1,267,-111
10.700084,-11948,1534,11358,21,193,-110,15,226,-116
10.710084,-11941,1447,11418,41,171,-105,35,204,-111
10.720082,-11930,1432,11385,67,154,-101,61,187,-107
10.730083,-11965,1476,11259,89,139,-100,83,172,-106
10.740083,-11983,1494,11209,78,131,-107,72,164,-113
10.750083,-11993,1514,11206,51,115,-128,45,148,-134
10.760082,-11975,1492,11155,42,119,-137,36,152,-143
10.770083,-11969,1471,11110,34,132,-144,28,165,-150
10.780082,-12033,1449,11052,-1,167,-154,-7,200,-160
10.790083,-12032,1424,11032,-19,187,-158,-25,220,-164
10.800083,-12108,1283,11013,-31,240,-143,-37,273,-149
10.810083,-12132,1301,10960,-33,270,-131,-39,303,-137
10.820082,-12179,1337,10930,-59,320,-119,-65,353,-125
10.830083,-12112,1317,10945,-70,342,-119,-76,375,-125
10.840083,-12126,1316,10953,-82,368,-118,-88,401,-124
10.850083,-12189,1360,11034,-74,418,-104,-80,451,-110
10.860081,-12205,1453,11012,-54,423,-105,-60,456,-111
10.870082,-12224,1562,11016,-27,412,-101,-33,445,-107
10.880082,-12222,1612,11016,13,408,-102,7,441,-108
10.890082,-12184,1639,10922,95,410,-103,89,443,-109
10.900083,-12267,1618,10821,127,409,-110,121,442,-116
10.910178,-12368,1610,10798,157,403,-118,151,436,-124
10.920084,-12374,1524,10754,186,365,-135,180,398,-141
10.930080,-12407,1481,10736,196,354,-138,190,387,-144
10.940083,-12487,1331,10706,184,337,-150,178,370,-156
10.950161,-12489,1287,10667,178,325,-159,172,358,-165
10.960083,-12522,1337,10567,173,310,-163,167,343,-169
10.970082,-12535,1383,10452,132,270,-150,126,303,-156
10.980082,-12517,1346,10504,115,253,-140,109,286,-146
10.990082,-12549,1240,10605,127,226,-104,121,259,-110
11.000080,-12547,1239,10631,148,219,-83,142,252,-89
11.010082,-12473,1240,10655,215,198,-15,209,231,-21
11.020082,-12408,1095,10624,281,183,19,275,216,13
11.030082,-12449,1130,10558,345,172,44,339,205,38
11.040082,-12394,1255,10495,432,173,82,426,206,76
11.050082,-12424,1287,10430,475,186,105,469,219,99
11.060083,-12439,1526,10327,512,230,121,506,263,115
11.070083,-12456,1495,10335,515,249,112,509,282,106
11.080080,-12508,1508,10275,501,280,66,495,313,60
11.090183,-12645,1641,10117,450,295,24,444,328,18
11.100076,-12736,1641,10084,384,302,-27,378,335,-33
11.110084,-12761,1606,10163,285,332,-118,279,365,-124
11.120084,-12761,1650,10119,253,349,-176,247,382,-182
11.130083,-12797,1744,10026,194,363,-288,188,396,-294
11.140084,-12948,1850,10148,141,363,-360,135,396,-366
11.150082,-13037,1808,10021,19,365,-498,13,398,-504
11.160083,-13141,1792,9922,-56,376,-562,-62,409,-568
11.170082,-13307,1809,9916,-140,382,-594,-146,415,-600
11.180082,-13254,1681,9890,-346,381,-622,-352,414,-628
11.190082,-13156,1593,9863,-432,377,-634,-438,410,-640
11.200082,-13280,1591,9993,-574,366,-629,-580,399,-635
11.210081,-13193,1415,10086,-594,354,-607,-600,387,-613
11.220081,-13131,1319,10050,-582,345,-581,-588,378,-587
11.230172,-13067,1273,10013,-577,341,-548,-583,374,-554
11.240115,-12980,1180,10047,-591,347,-535,-597,380,-541
11.250218,-13065,1150,10089,-602,366,-538,-608,399,-544
11.260113,-13074,1051,10072,-610,374,-542,-616,407,-548
11.270146,-13166,939,10120,-600,359,-549,-606,392,-555
11.280071,-13232,808,10084,-593,345,-548,-599,378,-554
11.290066,-13256,734,10101,-578,331,-542,-584,364,-548
11.300067,-13401,658,10017,-513,294,-515,-519,327,-521
11.310067,-13392,608,9991,-485,266,-503,-491,299,-509
11.320067,-13353,454,9999,-419,221,-482,-425,254,-488
11.330070,-13380,337,9944,-383,223,-471,-389,256,-477
11.340072,-13373,195,9849,-365,251,-464,-371,284,-470
11.350069,-13485,-20,9791,-368,272,-448,-374,305,-454
11.360075,-13442,-152,9813,-362,295,-423,-368,328,-429
11.370075,-13198,-206,9772,-334,404,-365,-340,437,-371
11.380075,-13159,-127,9657,-291,478,-331,-297,511,-337
11.390075,-12979,89,9576,-216,580,-255,-222,613,-261
11.400077,-12809,151,9438,-166,619,-235,-172,652,-241
11.410075,-12784,247,9450,-120,704,-272,-126,737,-278
11.420075,-12794,203,9365,-102,746,-306,-108,779,-312
11.430076,-13047,215,9392,-92,771,-333,-98,804,-339
11.440075,-13512,89,9415,-75,768,-349,-81,801,-355
11.450076,-13725,36,9501,-66,739,-330,-72,772,-336
11.460082,-13772,-37,9479,-5,666,-256,-11,699,-262
11.470078,-13658,38,9365,45,650,-223,39,683,-229
11.480082,-13622,98,9241,84,648,-195,78,681,-201
11.490082,-13629,170,9238,106,669,-175,100,702,-181
11.500081,-13734,99,9108,106,679,-195,100,712,-201
11.510081,-13898,-61,8897,49,662,-243,43,695,-249
11.520081,-14053,-156,8880,13,645,-243,7,678,-249
11.530082,-14091,-230,8895,-3,607,-174,-9,640,-180
11.540082,-14072,-131,8790,1,594,-147,-5,627,-153
11.550080,-13966,-103,8746,0,588,-129,-6,621,-135
11.560081,-13786,-233,8614,18,620,-117,12,653,-123
11.570151,-13855,-279,8574,31,661,-117,25,694,-123
11.580084,-13960,-363,8511,54,737,-101,48,770,-107
11.590084,-14057,-394,8491,80,757,-65,74,790,-71
11.600082,-14087,-384,8423,160,793,18,154,826,12
11.610082,-14133,-188,8354,196,814,50,190,847,44
11.620080,-14251,-78,8420,233,837,55,227,870,49
11.630081,-14284,135,8215,262,867,50,256,900,44
11.640082,-14251,190,8187,263,876,36,257,909,30
11.650141,-14272,253,7931,230,889,-18,224,922,-24
11.660090,-14341,234,7925,194,887,-55,188,920,-61
11.670075,-14463,261,7969,160,873,-93,154,906,-99
11.680076,-14460,199,7980,136,830,-130,130,863,-136
11.690076,-14529,246,7925,132,809,-140,126,842,-146
11.700075,-14660,287,7862,105,740,-162,99,773,-168
11.710075,-14811,288,7792,78,696,-169,72,729,-175
11.720075,-14925,284,7712,3,579,-180,-3,612,-186
11.730075,-14892,394,7712,-39,509,-184,-45,542,-190
11.740075,-14901,327,7850,-65,444,-176,-71,477,-182
11.750075,-14753,272,7939,-24,337,-114,-30,370,-120
11.760081,-14766,261,7928,22,306,-78,16,339,-84
11.770082,-14766,223,7829,111,246,-4,105,279,-10
11.780081,-14641,168,7829,163,218,34,157,251,28
11.790081,-14646,-37,7843,299,209,96,293,242,90
11.800081,-14787,-373,7758,374,218,122,368,251,116
11.810077,-14805,-419,7626,425,224,134,419,257,128
11.820081,-14819,-337,7447,432,227,109,426,260,103
11.830081,-14923,-308,7415,415,222,107,409,255,101
11.840081,-15080,-253,7290,372,173,189,366,206,183
11.850080,-14914,-309,7241,360,180,288,354,213,282
11.860077,-14693,-256,7162,340,275,449,334,308,443
11.870079,-14611,-183,6993,309,330,430,303,363,424
11.880141,-14605,-69,7104,242,394,408,236,427,402
11.890149,-14717,-4,7240,163,469,339,157,502,333
11.900133,-14775,-168,7050,120,505,286,114,538,280
11.910143,-14702,314,6901,-77,510,51,-83,543,45
11.920087,-14750,226,7005,-150,508,-27,-156,541,-33
11.930079,-14761,226,7091,-200,486,-143,-206,519,-149
11.940122,-14850,360,7137,-223,467,-184,-229,500,-190
11.950152,-14831,394,7123,-230,449,-216,-236,482,-222
11.960094,-14798,408,7100,-209,430,-254,-215,463,-260
11.970126,-14888,390,7109,-187,413,-261,-193,446,-267
11.980074,-14868,345,7016,-138,411,-282,-144,444,-288
11.990075,-14890,61,7020,-109,428,-279,-115,461,-285
12.000078,-14905,-24,7039,-75,465,-260,-81,498,-266
12.010077,-14937,-115,6921,6,582,-195,0,615,-201
12.020141,-14950,-167,6787,48,642,-154,42,675,-160
12.030119,-15080,-85,6657,99,730,-96,93,763,-102
12.040079,-15078,-155,6558,110,764,-87,104,797,-93
12.050075,-15166,-189,6514,103,813,-90,97,846,-96
12.060115,-15249,-129,6490,99,843,-78,93,876,-84
12.070143,-15218,-72,6474,108,882,-67,102,915,-73
12.080086,-15288,9,6511,130,958,-43,124,991,-49
12.090090,-15367,41,6438,136,985,-50,130,1018,-56
12.100057,-15476,-23,6381,102,987,-80,96,1020,-86
12.110052,-15434,114,6175,66,973,-106,60,1006,-112
12.120052,-15267,139,6179,29,963,-133,23,996,-139
12.130051,-15202,212,6089,-7,937,-192,-13,970,-198
12.140052,-15289,260,6105,-4,883,-214,-10,916,-220
12.150053,-15472,401,6037,12,730,-233,6,763,-239
12.160056,-15455,398,6056,16,655,-235,10,688,-241
12.170053,-15406,306,6041,77,546,-216,71,579,-222
12.180052,-15287,-10,5913,118,528,-206,112,561,-212
12.190052,-15385,-202,5829,154,523,-196,148,556,-202
12.200054,-15639,-437,5693,174,519,-181,168,552,-187
12.210052,-15623,-491,5620,175,523,-171,169,556,-177
12.220053,-15583,-461,5494,131,546,-154,125,579,-160
12.230053,-15530,-421,5444,104,565,-146,98,598,-152
12.240054,-15462,-351,5409,45,619,-131,39,652,-137
12.250052,-15347,-360,5209,28,648,-145,22,681,-151
12.260053,-15306,-386,5112,21,666,-156,15,699,-162
12.270059,-15203,-421,4969,51,696,-187,45,729,-193
12.280055,-15243,-318,5056,76,721,-196,70,754,-202
12.290053,-15292,-283,4937,145,781,-220,139,814,-226
12.300054,-15408,-200,4987,194,809,-217,188,842,-223
12.310053,-15515,-84,4943,241,821,-177,235,854,-183
12.320053,-15617,-547,4788,343,857,-86,337,890,-92
12.330052,-15803,-569,4563,366,876,-73,360,909,-79
12.340053,-15810,-539,4542,386,888,-50,380,921,-56
12.350053,-15745,-442,4322,342,945,-47,336,978,-53
12.360054,-15827,-664,4592,390,1054,-39,384,1087,-45
12.370054,-16207,-243,4625,460,1091,62,454,1124,56
12.380053,-16297,-198,4532,486,1127,142,480,1160,136
12.390054,-16281,-128,4306,446,1152,139,440,1185,133
12.400054,-16303,9,4164,417,1139,115,411,1172,109
12.410053,-16209,-29,4116,306,1134,58,300,1167,52
12.420053,-16276,29,4091,265,1145,61,259,1178,55
12.430053,-16328,201,3963,243,1155,139,237,1188,133
12.440053,-16417,497,3659,203,1145,155,197,1178,149
12.450052,-16225,572,3417,140,1113,97,134,1146,91
12.460052,-15581,542,2774,-122,1084,-257,-128,1117,-263
12.470056,-15743,620,3255,-287,1086,-469,-293,1119,-475
12.480082,-15993,112,3480,-309,1012,-653,-315,1045,-659
12.490053,-16177,-92,3464,-283,978,-680,-289,1011,-686
12.500052,-16775,-471,3249,-265,1008,-635,-271,1041,-641
12.510052,-16719,-552,3355,-221,969,-574,-227,1002,-580
12.520053,-16726,-567,3205,-172,932,-498,-178,965,-504
12.530053,-16721,-513,3183,-104,868,-362,-110,901,-368
12.540052,-16851,-509,3220,-66,840,-283,-72,873,-289
12.550053,-17078,-483,3167,37,748,-107,31,781,-113
12.560052,-17267,-45,3069,70,683,-9,64,716,-15
12.570052,-17308,132,3104,96,609,84,90,642,78
12.580052,-17140,196,3191,155,461,227,149,494,221
12.590052,-16917,149,2923,178,379,257,172,412,251
12.600053,-16491,-366,2737,140,285,326,134,318,320
12.610053,-16346,-455,2669,142,258,397,136,291,391
12.620053,-16279,-421,2642,175,244,592,169,277,586
12.630052,-16104,-334,2479,187,254,667,181,287,661
12.640075,-15977,-228,2505,181,245,670,175,278,664
12.650054,-15916,-140,2326,91,239,511,85,272,505
12.660053,-15927,-349,2405,75,235,478,69,268,472
12.670056,-15915,-652,2458,153,284,577,147,317,571
12.680052,-16087,-716,2346,219,335,657,213,368,651
12.690053,-16258,-644,2368,325,441,801,319,474,795
12.700052,-16369,-90,2237,344,476,825,338,509,819
12.710053,-16338,115,2179,343,505,821,337,538,815
12.720053,-16442,605,1986,279,523,703,273,556,697
12.730053,-16520,681,2053,241,508,621,235,541,615
12.740052,-16505,1076,1985,208,437,412,202,470,406
12.750053,-16512,1038,2094,172,404,322,166,437,316
12.760052,-16493,919,2183,181,364,231,175,397,225
12.770053,-16315,775,2126,172,366,212,166,399,206
12.780052,-16358,628,2099,151,376,198,145,409,192
12.790053,-16296,508,1991,74,408,167,68,441,161
12.800052,-16283,598,1912,6,435,153,0,468,147
12.810053,-16177,638,1792,-158,520,134,-164,553,128
12.820053,-15614,1220,1106,-354,609,106,-360,642,100
12.830053,-15440,1392,1022,-583,704,-15,-589,737,-21
12.840052,-15519,1396,1126,-1032,815,-532,-1038,848,-538
12.850052,-15805,1180,1221,-1202,829,-804,-1208,862,-810
12.860053,-16296,306,1539,-1321,822,-1136,-1327,855,-1142
12.870055,-16463,-32,1660,-1263,811,-1196,-1269,844,-1202
12.880050,-16707,-322,1685,-1033,782,-1120,-1039,815,-1126
12.890053,-16949,-566,1319,-920,778,-980,-926,811,-986
12.900053,-16940,-575,1241,-849,782,-808,-855,815,-814
12.910053,-16808,-417,1327,-729,814,-458,-735,847,-464
12.920052,-16644,-438,1387,-652,833,-310,-658,866,-316
12.930053,-16397,-235,1310,-449,892,-148,-455,925,-154
12.940053,-16369,-33,1221,-362,923,-128,-368,956,-134
12.950052,-16294,124,1208,-240,992,-167,-246,1025,-173
12.960052,-16544,14,817,-205,991,-251,-211,1024,-257
12.970052,-16619,-285,710,-185,951,-361,-191,984,-367
12.980052,-16591,-806,379,-202,871,-559,-208,904,-565
12.990053,-16606,-989,401,-229,856,-609,-235,889,-615
13.000052,-17216,-856,355,-246,841,-618,-252,874,-624
13.010053,-17531,-586,207,-256,815,-569,-262,848,-575
13.020052,-17672,-436,208,-307,763,-422,-313,796,-428
13.030052,-17866,-493,668,-304,686,-343,-310,719,-349
13.040052,-17464,-357,503,-271,586,-266,-277,619,-272
13.050052,-17149,-581,667,-259,454,-119,-265,487,-125
13.060053,-17143,-586,581,-234,400,-45,-240,433,-51
13.070055,-17244,-590,442,-232,230,79,-238,263,73
13.080052,-17306,-903,268,-242,139,166,-248,172,160
13.090052,-17197,-1056,228,-257,68,286,-263,101,280
13.100052,-16860,-1066,160,-283,-14,472,-289,19,466
13.110052,-16712,-905,80,-303,-36,496,-309,-3,490
13.120052,-16482,-504,-159,-383,-54,454,-389,-21,448
13.130072,-16610,-439,-142,-436,-40,433,-442,-7,427
13.140053,-16580,-335,-181,-499,-8,367,-505,25,361
13.150053,-15797,3,-150,-532,0,276,-538,33,270
13.160054,-16157,-89,-134,-530,-4,129,-536,29,123
13.170053,-16746,-335,-168,-501,3,65,-507,36,59
13.180052,-16656,-362,-222,-479,11,99,-485,44,93
13.190053,-16649,-437,-149,-434,41,155,-440,74,149
13.200064,-16630,-401,-156,-411,56,174,-417,89,168
13.210072,-16617,-352,-178,-357,80,193,-363,113,187
13.220054,-16707,-136,-172,-336,76,188,-342,109,182
13.230053,-16690,-28,-163,-317,62,171,-323,95,165
13.240053,-16638,62,-164,-286,28,124,-292,61,118
13.250052,-16653,50,-233,-271,9,98,-277,42,92
13.260051,-16675,53,-247,-237,-46,40,-243,-13,34
13.270059,-16636,3,-272,-209,-79,10,-215,-46,4
13.280055,-16583,-74,-233,-182,-105,-14,-188,-72,-20
13.290052,-16551,-160,-182,-125,-111,-42,-131,-78,-48
13.300053,-16550,-171,-138,-97,-107,-42,-103,-74,-48
13.310053,-16618,-87,-76,-36,-102,-13,-42,-69,-19
13.320052,-16679,-64,-113,-8,-111,19,-14,-78,13
13.330053,-16745,10,-79,47,-150,108,41,-117,102
13.340052,-16798,52,10,82,-166,133,76,-133,127
13.350052,-16767,15,19,107,-180,115,101,-147,109
13.360052,-16684,-144,-54,115,-178,109,109,-145,103
13.370051,-16683,-235,-67,104,-172,108,98,-139,102
13.380052,-16552,-427,4,89,-145,96,83,-112,90
13.390052,-16540,-462,17,78,-123,88,72,-90,82
13.400053,-16519,-477,-15,53,-68,63,47,-35,57
13.410068,-16535,-416,-67,41,-40,55,35,-7,49
13.420064,-16587,-364,-94,28,-20,50,22,13,44
13.430052,-16625,-325,-99,5,-6,39,-1,27,33
13.440053,-16562,-306,-72,0,-4,28,-6,29,22
13.450052,-16592,-271,-60,0,8,18,-6,41,12
13.460052,-16668,-238,-23,-4,9,20,-10,42,14
13.470057,-16671,-151,-52,-14,-5,30,-20,28,24
13.480051,-16560,-138,-2,-19,0,34,-25,33,28
13.490052,-16503,-142,-7,-23,9,36,-29,42,30
13.500052,-16621,-129,31,-27,6,27,-33,39,21
13.510052,-16640,-145,85,-31,1,21,-37,34,15
13.520052,-16655,-142,116,-30,-5,13,-36,28,7
13.530053,-16643,-92,159,-26,-7,16,-32,26,10
13.540052,-16646,-80,181,-26,-7,28,-32,26,22
13.550052,-16670,-72,185,-19,-7,72,-25,26,66
13.560052,-16667,-83,176,-15,-6,96,-21,27,90
13.570052,-16634,-84,113,-11,0,149,-17,33,143
13.580052,-16591,-157,107,-13,3,168,-19,36,162
13.590051,-16558,-172,108,-14,13,189,-20,46,183
13.600051,-16556,-85,43,-27,14,186,-33,47,180
13.610052,-16581,-64,15,-42,17,165,-48,50,159
13.620052,-16617,-1,-5,-71,15,145,-77,48,139
13.630052,-16624,21,-44,-78,13,140,-84,46,134
13.640052,-16566,118,-64,-93,22,121,-99,55,115
13.650052,-16569,60,-30,-106,23,104,-112,56,98
13.660052,-16628,39,-38,-116,24,96,-122,57,90
13.670054,-16710,56,-64,-124,26,103,-130,59,97
13.680063,-16700,84,-87,-130,27,124,-136,60,118
13.690053,-16671,194,-89,-143,26,147,-149,59,141
13.700052,-16696,209,-100,-143,24,156,-149,57,150
13.710052,-16675,223,-103,-124,18,188,-130,51,182
13.720052,-16641,196,-127,-103,12,187,-109,45,181
13.730052,-16641,197,-151,-72,2,160,-78,35,154
13.740052,-16617,221,-200,-70,-2,138,-76,31,132
13.750052,-16604,195,-190,-66,-7,113,-72,26,107
13.760052,-16602,220,-199,-60,-14,70,-66,19,64
13.770052,-16617,217,-187,-65,-17,53,-71,16,47
13.780052,-16637,211,-175,-75,-21,30,-81,12,24
13.790052,-16638,229,-173,-81,-21,27,-87,12,21
13.800052,-16634,234,-158,-94,-20,28,-100,13,22
13.810052,-16622,240,-129,-117,-17,39,-123,16,33
13.820052,-16639,228,-95,-127,-15,46,-133,18,40
13.830052,-16650,198,-47,-129,-12,66,-135,21,60
13.840051,-16664,215,-26,-127,-12,75,-133,21,69
13.850051,-16658,219,-44,-124,-11,96,-130,22,90
13.860051,-16638,224,-32,-122,-11,107,-128,22,101
13.870056,-16647,265,-40,-117,-9,112,-123,24,106
13.880051,-16649,237,-75,-104,-11,115,-110,22,109
13.890051,-16649,255,-86,-93,-11,120,-99,22,114
13.900052,-16638,253,-94,-77,-9,132,-83,24,126
13.910050,-16628,269,-114,-75,-9,136,-81,24,130
13.920052,-16633,315,-146,-92,-8,140,-98,25,134
13.930051,-16642,294,-146,-103,-8,139,-109,25,133
13.940050,-16624,321,-176,-112,-8,138,-118,25,132
13.950051,-16636,386,-157,-140,-9,136,-146,24,130
13.960051,-16624,365,-129,-150,-7,137,-156,26,131
13.970052,-16607,394,-179,-152,-7,137,-158,26,131
13.980052,-16627,424,-203,-163,-6,133,-169,27,127
13.990051,-16620,442,-197,-180,-7,123,-186,26,117
14.000051,-16600,485,-177,-172,-9,114,-178,24,108
14.010053,-16618,490,-160,-157,-10,106,-163,23,100
14.020052,-16628,512,-156,-118,-15,87,-124,18,81
14.030052,-16610,528,-142,-107,-18,81,-113,15,75
14.040051,-16641,525,-148,-97,-20,71,-103,13,65
14.050051,-16607,500,-102,-94,-21,65,-100,12,59
14.060052,-16666,433,-136,-89,-22,63,-95,11,57
14.070054,-16686,372,-122,-84,-21,68,-90,12,62
14.080050,-16679,355,-101,-79,-21,76,-85,12,70
14.090052,-16579,327,-74,-59,-22,79,-65,11,73
14.100051,-16588,305,-91,-50,-22,76,-56,11,70
14.110052,-16591,307,-87,-43,-19,84,-49,14,78
14.120052,-16610,366,-98,-45,-17,91,-51,16,85
14.130051,-16626,377,-109,-47,-15,100,-53,18,94
14.140051,-16647,382,-82,-51,-10,113,-57,23,107
14.150051,-16652,387,-82,-47,-9,123,-53,24,117
14.160052,-16649,443,-119,-49,-5,143,-55,28,137
14.170052,-16655,456,-111,-58,-1,153,-64,32,147
14.180051,-16645,492,-122,-73,3,174,-79,36,168
14.190051,-16620,589,-139,-81,6,184,-87,39,178
14.200052,-16622,589,-139,-88,9,190,-94,42,184
14.210052,-16622,626,-151,-88,9,192,-94,42,186
14.220052,-16616,641,-160,-85,8,188,-91,41,182
14.230051,-16614,648,-178,-75,6,172,-81,39,166
14.240052,-16608,645,-177,-71,3,161,-77,36,155
14.250050,-16603,663,-178,-65,0,142,-71,33,136
14.260052,-16603,701,-182,-63,-3,133,-69,30,127
14.270056,-16623,717,-195,-60,-3,123,-66,30,117
14.280057,-16635,754,-195,-57,-9,99,-63,24,93
14.290051,-16611,778,-184,-54,-12,87,-60,21,81
14.300051,-16602,795,-178,-40,-19,57,-46,14,51
14.310053,-16583,808,-187,-29,-23,41,-35,10,35
14.320072,-16585,804,-194,-13,-27,23,-19,6,17
14.330052,-16593,799,-214,7,-36,-11,1,-3,-17
14.340052,-16599,769,-189,14,-40,-25,8,-7,-31
14.350052,-16605,743,-187,24,-44,-43,18,-11,-49
14.360051,-16610,733,-189,27,-46,-50,21,-13,-56
14.370051,-16619,730,-199,30,-47,-57,24,-14,-63
14.380052,-16614,688,-194,30,-46,-60,24,-13,-66
14.390051,-16618,674,-193,32,-47,-61,26,-14,-67
14.400051,-16646,625,-186,30,-46,-53,24,-13,-59
14.410051,-16671,623,-190,24,-43,-44,18,-10,-50
14.420049,-16752,606,-196,7,-38,-21,1,-5,-27
14.430051,-16773,596,-195,0,-36,-4,-6,-3,-10
14.440051,-16774,617,-190,-11,-33,30,-17,0,24
14.450051,-16723,656,-193,-15,-31,40,-21,2,34
14.460050,-16700,679,-197,-21,-29,49,-27,4,43
14.470055,-16655,696,-183,-27,-28,63,-33,5,57
14.480051,-16593,684,-178,-27,-28,62,-33,5,56
14.490051,-16585,698,-167,-22,-28,51,-28,5,45
14.500050,-16558,711,-187,-21,-29,44,-27,4,38
14.510051,-16547,714,-197,-19,-29,37,-25,4,31
14.520051,-16590,732,-190,-15,-30,22,-21,3,16
14.530051,-16575,734,-182,-11,-31,15,-17,2,9
14.540051,-16582,745,-184,-3,-34,3,-9,-1,-3
14.550050,-16584,745,-180,0,-35,-1,-6,-2,-7
14.560051,-16578,727,-176,0,-34,-10,-6,-1,-16
14.570051,-16589,721,-189,2,-35,-13,-4,-2,-19
14.580051,-16589,726,-198,5,-36,-18,-1,-3,-24
14.590051,-16579,724,-199,9,-38,-25,3,-5,-31
14.600051,-16579,712,-193,6,-39,-26,0,-6,-32
14.610052,-16620,694,-213,0,-38,-25,-6,-5,-31
14.620054,-16614,687,-191,-2,-39,-24,-8,-6,-30
14.630051,-16631,674,-198,-4,-38,-18,-10,-5,-24
14.640050,-16622,671,-182,-7,-38,-18,-13,-5,-24
14.650054,-16627,644,-192,-12,-38,-22,-18,-5,-28
14.660051,-16624,647,-192,-22,-41,-35,-28,-8,-41
14.670056,-16615,671,-188,-22,-42,-41,-28,-9,-47
14.680049,-16610,702,-195,-16,-43,-49,-22,-10,-55
14.690051,-16622,721,-192,-10,-41,-48,-16,-8,-54
14.700051,-16629,705,-181,1,-40,-45,-5,-7,-51
14.710051,-16634,675,-172,7,-39,-42,1,-6,-48
14.720051,-16630,673,-179,10,-40,-39,4,-7,-45
14.730051,-16629,640,-190,9,-40,-31,3,-7,-37
14.740051,-16632,640,-184,8,-40,-26,2,-7,-32
14.750051,-16635,636,-178,2,-37,-17,-4,-4,-23
14.760050,-16626,640,-183,0,-37,-12,-6,-4,-18
14.770051,-16635,650,-188,-2,-35,-9,-8,-2,-15
14.780050,-16634,652,-193,-6,-34,-3,-12,-1,-9
14.790052,-16638,646,-180,-8,-34,0,-14,-1,-6
14.800050,-16647,658,-179,-8,-33,7,-14,0,1
14.810051,-16648,676,-191,-9,-33,11,-15,0,5
14.820050,-16654,680,-201,-19,-33,18,-25,0,12
14.830069,-16604,689,-212,-24,-33,18,-30,0,12
14.840051,-16593,683,-200,-29,-32,16,-35,1,10
14.850051,-16576,676,-181,-28,-34,10,-34,-1,4
14.860049,-16588,664,-178,-26,-33,5,-32,0,-1
14.870054,-16618,686,-189,-24,-35,0,-30,-2,-6
14.880060,-16626,684,-201,-25,-34,-1,-31,-1,-7
14.890051,-16638,668,-189,-30,-33,0,-36,0,-6
14.900067,-16670,676,-195,-33,-32,0,-39,1,-6
14.910181,-16672,685,-202,-35,-32,2,-41,1,-4
14.920053,-16635,660,-190,-30,-32,0,-36,1,-6
14.930052,-16630,664,-201,-24,-33,0,-30,0,-6
14.940051,-16605,645,-168,-13,-36,-4,-19,-3,-10
14.950051,-16599,632,-163,-8,-37,-3,-14,-4,-9
14.960050,-16610,623,-160,-2,-34,1,-8,-1,-5
14.970051,-16616,620,-182,-2,-33,7,-8,0,1
14.980050,-16632,607,-170,-3,-32,13,-9,1,7
14.990050,-16656,658,-186,-7,-30,21,-13,3,15
15.000061,-16641,663,-176,-9,-29,24,-15,4,18
15.010052,-16655,670,-180,-18,-27,27,-24,6,21
15.020050,-16597,707,-196,-16,-26,27,-22,7,21
15.030051,-16603,706,-209,-14,-28,22,-20,5,16
15.040050,-16575,711,-192,-16,-29,16,-22,4,10
15.050061,-16578,718,-194,-19,-30,13,-25,3,7
15.060050,-16586,701,-193,-25,-30,8,-31,3,2
15.070052,-16596,736,-203,-23,-32,2,-29,1,-4
15.080050,-16602,724,-215,-21,-35,-12,-27,-2,-18
15.090062,-16616,708,-198,-18,-37,-17,-24,-4,-23
15.100050,-16620,701,-192,-14,-38,-22,-20,-5,-28
15.110049,-16609,677,-184,-6,-39,-31,-12,-6,-37
15.120064,-16619,656,-198,-1,-40,-34,-7,-7,-40
15.130064,-16614,599,-240,0,-41,-38,-6,-8,-44
15.140051,-16621,583,-260,-6,-42,-39,-12,-9,-45
15.150051,-16621,583,-256,-30,-41,-43,-36,-8,-49
15.160049,-16628,604,-245,-42,-40,-42,-48,-7,-48
15.170051,-16624,648,-216,-51,-39,-36,-57,-6,-42
15.180049,-16623,761,-142,-51,-37,-26,-57,-4,-32
15.190051,-16623,721,-117,-63,-36,-23,-69,-3,-29
15.200049,-16628,689,-130,-47,-35,-16,-53,-2,-22
15.210051,-16620,666,-137,-40,-35,-13,-46,-2,-19
15.220051,-16621,682,-153,-27,-35,-13,-33,-2,-19
15.230051,-16605,664,-180,-26,-34,-15,-32,-1,-21
15.240050,-16601,651,-169,-22,-35,-15,-28,-2,-21
15.250050,-16605,612,-163,-15,-35,-12,-21,-2,-18
15.260051,-16618,609,-171,-12,-34,-9,-18,-1,-15
15.270053,-16633,605,-171,-9,-32,-1,-15,1,-7
15.280051,-16701,633,-163,-8,-32,0,-14,1,-6
15.290050,-16720,641,-160,-6,-31,1,-12,2,-5
15.300050,-16709,641,-162,-5,-30,0,-11,3,-6
15.310050,-16679,659,-174,-5,-30,0,-11,3,-6
15.320050,-16661,649,-179,-5,-30,1,-11,3,-5
15.330050,-16634,660,-177,-4,-29,0,-10,4,-6
15.340050,-16641,681,-192,-2,-31,-3,-8,2,-9
15.350050,-16597,668,-184,-2,-31,0,-8,2,-6
15.360050,-16592,682,-182,0,-31,0,-6,2,-6
15.370050,-16569,652,-191,0,-33,-4,-6,0,-10
15.380110,-16607,653,-194,0,-33,-4,-6,0,-10
15.390138,-16639,645,-176,-4,-33,-2,-10,0,-8
15.400090,-16625,637,-170,-3,-34,-3,-9,-1,-9
15.410068,-16642,632,-175,-6,-34,1,-12,-1,-5
15.420080,-16580,638,-184,-7,-33,3,-13,0,-3
15.430087,-16594,641,-190,-8,-32,3,-14,1,-3
15.440080,-16572,668,-193,-11,-30,0,-17,3,-6
15.450073,-16560,680,-186,-12,-30,-2,-18,3,-8
15.460070,-16572,688,-193,-9,-32,-9,-15,1,-15
15.470081,-16572,672,-184,-5,-33,-16,-11,0,-22
15.480110,-16575,678,-193,4,-38,-31,-2,-5,-37
15.490126,-16594,654,-181,7,-39,-37,1,-6,-43
15.500082,-16613,640,-188,9,-40,-42,3,-7,-48
15.510123,-16625,624,-195,17,-42,-47,11,-9,-53
15.520051,-16625,609,-203,17,-42,-46,11,-9,-52
15.530050,-16633,596,-206,11,-42,-40,5,-9,-46
15.540050,-16630,602,-189,8,-42,-36,2,-9,-42
15.550050,-16621,591,-187,1,-41,-30,-5,-8,-36
15.560050,-16616,575,-194,-9,-39,-19,-15,-6,-25
15.570049,-16626,567,-182,-12,-37,-13,-18,-4,-19
15.580051,-16618,603,-186,-15,-35,-4,-21,-2,-10
15.590050,-16621,602,-183,-18,-34,-2,-24,-1,-8
15.600050,-16626,593,-174,-19,-32,3,-25,1,-3
15.610052,-16631,597,-169,-21,-31,7,-27,2,1
15.620050,-16630,598,-185,-22,-30,11,-28,3,5
15.630050,-16631,618,-184,-18,-28,16,-24,5,10
15.640050,-16622,630,-190,-16,-29,16,-22,4,10
15.650050,-16612,638,-188,-12,-30,11,-18,3,5
15.660050,-16609,653,-185,-9,-31,7,-15,2,1
15.670051,-16610,656,-188,1,-32,-5,-5,1,-11
15.680049,-16616,642,-196,6,-34,-10,0,-1,-16
15.690052,-16620,636,-202,10,-36,-15,4,-3,-21
15.700051,-16605,616,-193,3,-36,-17,-3,-3,-23
15.710050,-16607,616,-197,-1,-36,-15,-7,-3,-21
15.720050,-16626,614,-198,-5,-34,-11,-11,-1,-17
15.730050,-16634,610,-194,-6,-34,-10,-12,-1,-16
15.740050,-16630,611,-198,-7,-34,-10,-13,-1,-16
15.750049,-16634,608,-190,-8,-35,-13,-14,-2,-19
15.760050,-16622,611,-188,-7,-36,-14,-13,-3,-20
15.770050,-16618,617,-187,-7,-36,-16,-13,-3,-22
15.780050,-16620,625,-195,-8,-36,-16,-14,-3,-22
15.790050,-16612,619,-185,-9,-35,-14,-15,-2,-20
15.800050,-16622,618,-165,-6,-35,-13,-12,-2,-19
15.810049,-16639,605,-171,-3,-36,-14,-9,-3,-20
15.820050,-16646,594,-187,0,-39,-22,-6,-6,-28
15.830049,-16643,593,-196,0,-38,-24,-6,-5,-30
15.840050,-16620,600,-196,-7,-37,-19,-13,-4,-25
15.850049,-16612,596,-190,-9,-35,-13,-15,-2,-19
15.860050,-16613,606,-190,-16,-34,-4,-22,-1,-10
15.870050,-16627,688,-245,-27,-33,-2,-33,0,-8
15.880049,-16624,590,-164,-39,-32,-2,-45,1,-8
15.890050,-16634,649,-195,-39,-31,-1,-45,2,-7
15.900049,-16630,640,-192,-54,-31,-2,-60,2,-8
15.910049,-16624,585,-170,-43,-32,-14,-49,1,-20
15.920050,-16620,607,-181,-36,-33,-20,-42,0,-26
15.930050,-16620,611,-186,-18,-37,-31,-24,-4,-37
15.940049,-16615,630,-196,-14,-38,-37,-20,-5,-43
15.950049,-16614,637,-193,-12,-40,-42,-18,-7,-48
15.960049,-16617,620,-193,-11,-40,-46,-17,-7,-52
15.970049,-16633,623,-196,-10,-42,-46,-16,-9,-52
15.980050,-16629,608,-194,-9,-41,-46,-15,-8,-52
15.990050,-16626,567,-187,-9,-41,-46,-15,-8,-52
16.000050,-16630,561,-182,-7,-41,-45,-13,-8,-51
16.010050,-16622,515,-191,-6,-37,-33,-12,-4,-39
16.020049,-16625,484,-212,-9,-36,-30,-15,-3,-36
16.030049,-16631,503,-207,-15,-35,-25,-21,-2,-31
16.040050,-16630,529,-202,-15,-35,-22,-21,-2,-28
16.050052,-16618,556,-188,-13,-35,-20,-19,-2,-26
16.060050,-16615,579,-168,-10,-35,-20,-16,-2,-26
16.070050,-16621,581,-177,-7,-35,-20,-13,-2,-26
16.080048,-16624,555,-196,-3,-37,-23,-9,-4,-29
16.090050,-16628,542,-194,-3,-38,-23,-9,-5,-29
16.100049,-16634,552,-186,-4,-38,-21,-10,-5,-27
16.110050,-16635,548,-185,-6,-38,-21,-12,-5,-27
16.120049,-16646,548,-173,-7,-37,-20,-13,-4,-26
16.130049,-16640,580,-167,-6,-37,-19,-12,-4,-25
16.140049,-16637,566,-153,-4,-38,-19,-10,-5,-25
16.150050,-16621,567,-139,0,-37,-16,-6,-4,-22
16.160050,-16624,559,-146,1,-38,-14,-5,-5,-20
16.170049,-16638,545,-171,2,-37,-13,-4,-4,-19
16.180050,-16636,530,-178,1,-37,-12,-5,-4,-18
16.190049,-16631,532,-179,-3,-37,-7,-9,-4,-13
16.200049,-16623,548,-157,-7,-34,-4,-13,-1,-10
16.210050,-16633,544,-156,-11,-33,0,-17,0,-6
16.220050,-16635,532,-163,-14,-32,6,-20,1,0
16.230050,-16626,552,-162,-14,-31,8,-20,2,2
16.240049,-16625,545,-172,-12,-32,9,-18,1,3
16.250050,-16616,529,-159,-11,-31,10,-17,2,4
16.260050,-16620,538,-166,-8,-31,10,-14,2,4
16.270055,-16623,550,-174,-3,-31,11,-9,2,5
16.280050,-16625,562,-179,-2,-31,11,-8,2,5
16.290049,-16623,577,-179,-2,-30,11,-8,3,5
16.300050,-16615,575,-178,-4,-30,12,-10,3,6
16.310050,-16605,573,-169,-8,-30,7,-14,3,1
16.320050,-16613,575,-171,-8,-32,5,-14,1,-1
16.330050,-16627,575,-176,-7,-32,0,-13,1,-6
16.340048,-16621,571,-177,-6,-34,-11,-12,-1,-17
16.350050,-16625,577,-166,-3,-36,-16,-9,-3,-22
16.360050,-16626,556,-150,2,-38,-25,-4,-5,-31
16.370049,-16627,545,-160,4,-38,-25,-2,-5,-31
16.380050,-16625,529,-158,2,-37,-18,-4,-4,-24
16.390049,-16624,529,-159,4,-36,-14,-2,-3,-20
16.400050,-16636,516,-153,4,-37,-13,-2,-4,-19
16.410048,-16650,527,-155,3,-37,-12,-3,-4,-18
16.420049,-16647,534,-173,3,-37,-11,-3,-4,-17
16.430068,-16616,516,-161,3,-37,-13,-3,-4,-19
16.440049,-16623,503,-149,4,-38,-11,-2,-5,-17
16.450049,-16632,504,-139,6,-37,-7,0,-4,-13
16.460050,-16623,511,-133,8,-37,-7,2,-4,-13
16.470052,-16628,515,-129,12,-37,-7,6,-4,-13
16.480048,-16648,526,-150,20,-38,-10,14,-5,-16
16.490049,-16674,536,-167,25,-38,-12,19,-5,-18
16.500050,-16696,531,-157,20,-37,-16,14,-4,-22
16.510050,-16593,527,-148,15,-38,-18,9,-5,-24
16.520050,-16590,513,-151,13,-38,-18,7,-5,-24
16.530050,-16602,537,-157,7,-37,-17,1,-4,-23
16.540049,-16604,555,-154,4,-37,-16,-2,-4,-22
16.550050,-16637,537,-145,0,-37,-17,-6,-4,-23
16.560049,-16654,549,-152,0,-37,-16,-6,-4,-22
16.570050,-16669,543,-154,-4,-35,-6,-10,-2,-12
16.580049,-16691,516,-151,-6,-34,1,-12,-1,-5
16.590049,-16711,520,-151,-7,-33,10,-13,0,4
16.600051,-16650,558,-148,-13,-31,29,-19,2,23
16.610049,-16598,524,-146,-17,-26,40,-23,7,34
16.620049,-16629,552,-150,-11,-27,38,-17,6,32
16.630049,-16621,531,-151,-13,-27,39,-19,6,33
16.640048,-16612,501,-143,-12,-29,28,-18,4,22
16.650048,-16621,521,-125,-10,-30,23,-16,3,17
16.660049,-16610,531,-134,-7,-31,17,-13,2,11
16.670048,-16593,545,-140,1,-33,6,-5,0,0
16.680048,-16588,549,-133,7,-33,1,1,0,-5
16.690048,-16605,541,-124,15,-35,-5,9,-2,-11
16.700048,-16612,551,-122,16,-35,-8,10,-2,-14
16.710048,-16612,542,-139,12,-35,-12,6,-2,-18
16.720049,-16630,540,-149,-1,-35,-12,-7,-2,-18
16.730049,-16628,531,-159,-8,-36,-13,-14,-3,-19
16.740066,-16614,545,-157,-17,-35,-9,-23,-2,-15
16.750050,-16623,543,-128,-16,-34,-5,-22,-1,-11
16.760048,-16626,562,-129,-12,-33,-3,-18,0,-9
16.770049,-16613,567,-134,-9,-33,-3,-15,0,-9
16.780049,-16617,559,-124,-7,-32,-1,-13,1,-7
16.790050,-16618,547,-133,-2,-31,0,-8,2,-6
16.800049,-16623,543,-138,0,-32,-3,-6,1,-9
16.810063,-16626,548,-143,0,-34,-13,-6,-1,-19
16.820068,-16613,542,-153,-1,-34,-18,-7,-1,-24
16.830050,-16596,532,-158,-3,-36,-20,-9,-3,-26
16.840049,-16603,525,-145,-6,-36,-19,-12,-3,-25
16.850049,-16610,538,-144,-6,-36,-18,-12,-3,-24
16.860049,-16597,550,-142,-7,-36,-15,-13,-3,-21
16.870050,-16613,546,-144,-8,-36,-13,-14,-3,-19
16.880049,-16621,548,-142,-7,-37,-14,-13,-4,-20
16.890049,-16621,531,-134,-9,-36,-11,-15,-3,-17
16.900049,-16619,533,-122,-10,-34,-8,-16,-1,-14
16.910049,-16616,531,-119,-11,-34,-8,-17,-1,-14
16.920049,-16612,519,-127,-10,-35,-6,-16,-2,-12
16.930049,-16608,526,-131,-7,-35,-4,-13,-2,-10
16.940049,-16602,524,-131,-6,-35,-4,-12,-2,-10
16.950048,-16601,513,-132,-5,-33,0,-11,0,-6
16.960049,-16602,495,-118,-5,-32,1,-11,1,-5
16.970049,-16608,497,-125,-2,-32,4,-8,1,-2
16.980048,-16619,517,-147,-1,-32,8,-7,1,2
16.990049,-16621,516,-146,1,-32,11,-5,1,5
17.000048,-16623,555,-150,0,-30,11,-6,3,5
17.010049,-16630,567,-150,-2,-29,11,-8,4,5
17.020064,-16636,574,-148,-1,-29,15,-7,4,9
17.030050,-16612,547,-161,-3,-29,14,-9,4,8
17.040049,-16597,543,-150,-3,-31,8,-9,2,2
17.050048,-16608,532,-136,0,-34,-5,-6,-1,-11
17.060133,-16624,536,-141,0,-34,-10,-6,-1,-16
17.070077,-16633,534,-144,2,-37,-18,-4,-4,-24
17.080072,-16653,534,-146,3,-37,-21,-3,-4,-27
17.090076,-16659,533,-141,4,-37,-27,-2,-4,-33
17.100076,-16615,521,-136,1,-37,-27,-5,-4,-33
17.110076,-16613,523,-140,-3,-36,-22,-9,-3,-28
17.120077,-16621,528,-147,-12,-36,-15,-18,-3,-21
17.130075,-16625,526,-149,-15,-36,-12,-21,-3,-18
17.140076,-16626,518,-139,-22,-35,-8,-28,-2,-14
17.150076,-16630,527,-151,-21,-34,-5,-27,-1,-11
17.160103,-16617,540,-160,-25,-33,-2,-31,0,-8
17.170076,-16621,538,-154,-25,-33,-1,-31,0,-7
17.180076,-16615,537,-152,-23,-34,0,-29,-1,-6
17.190075,-16625,534,-145,-18,-34,-2,-24,-1,-8
17.200076,-16625,537,-141,-13,-35,-3,-19,-2,-9
17.210076,-16615,523,-130,-4,-36,-6,-10,-3,-12
17.220076,-16619,519,-131,0,-37,-9,-6,-4,-15
17.230072,-16632,509,-127,7,-37,-16,1,-4,-22
17.240076,-16639,512,-125,11,-38,-19,5,-5,-25
17.250076,-16627,507,-119,13,-38,-23,7,-5,-29
17.260075,-16645,487,-125,9,-37,-21,3,-4,-27
17.270074,-16651,489,-136,7,-36,-18,1,-3,-24
17.280075,-16641,476,-138,2,-35,-12,-4,-2,-18
17.290072,-16635,473,-133,1,-34,-9,-5,-1,-15
17.300072,-16630,473,-133,-1,-33,-7,-7,0,-13
17.310076,-16630,479,-143,-4,-34,-12,-10,-1,-18
17.320076,-16616,471,-133,-9,-35,-16,-15,-2,-22
17.330076,-16621,513,-142,-14,-36,-19,-20,-3,-25
17.340075,-16625,506,-130,-16,-36,-15,-22,-3,-21
17.350075,-16621,522,-125,-16,-35,-8,-22,-2,-14
17.360076,-16604,542,-139,-17,-35,-6,-23,-2,-12
17.370076,-16620,546,-148,-18,-34,-4,-24,-1,-10
17.380075,-16618,542,-143,-11,-36,-9,-17,-3,-15
17.390075,-16620,533,-144,-6,-36,-11,-12,-3,-17
17.400078,-16627,512,-144,-4,-35,-13,-10,-2,-19
17.410075,-16636,515,-150,-6,-34,-12,-12,-1,-18
17.420076,-16632,511,-145,-9,-35,-11,-15,-2,-17
17.430075,-16616,492,-139,-11,-35,-11,-17,-2,-17
17.440075,-16630,490,-140,-10,-34,-9,-16,-1,-15
17.450074,-16630,502,-132,-7,-34,-5,-13,-1,-11
17.460077,-16619,517,-137,-5,-34,-8,-11,-1,-14
17.470077,-16621,504,-130,-3,-36,-14,-9,-3,-20
17.480074,-16631,509,-139,-2,-35,-16,-8,-2,-22
17.490076,-16637,502,-147,1,-37,-22,-5,-4,-28
17.500073,-16627,491,-125,4,-38,-25,-2,-5,-31
17.510076,-16622,490,-130,5,-38,-29,-1,-5,-35
17.520075,-16629,504,-151,3,-40,-38,-3,-7,-44
17.530076,-16623,490,-152,0,-39,-41,-6,-6,-47
17.540076,-16627,488,-144,-5,-40,-38,-11,-7,-44
17.550076,-16630,514,-137,-6,-40,-35,-12,-7,-41
17.560073,-16624,490,-137,-9,-39,-32,-15,-6,-38
17.570133,-16604,491,-125,-6,-38,-30,-12,-5,-36
17.580077,-16613,511,-169,-2,-39,-32,-8,-6,-38
17.590076,-16615,440,-134,0,-39,-33,-6,-6,-39
17.600077,-16610,458,-141,0,-38,-28,-6,-5,-34
17.610076,-16609,447,-142,-3,-40,-26,-9,-7,-32
17.620073,-16630,457,-134,-5,-39,-24,-11,-6,-30
17.630076,-16634,449,-139,-6,-38,-19,-12,-5,-25
17.640087,-16636,450,-131,-7,-37,-16,-13,-4,-22
17.650078,-16630,448,-128,-7,-37,-14,-13,-4,-20
17.660076,-16627,470,-145,-1,-37,-12,-7,-4,-18
17.670075,-16618,414,-119,-2,-36,-9,-8,-3,-15
17.680073,-16618,439,-137,0,-33,-2,-6,0,-8
17.690076,-16619,466,-144,-1,-33,-2,-7,0,-8
17.700076,-16619,456,-125,-1,-34,-2,-7,-1,-8
17.710076,-16624,465,-131,0,-35,1,-6,-2,-5
17.720076,-16623,455,-133,-2,-35,1,-8,-2,-5
17.730076,-16625,448,-127,-4,-34,-3,-10,-1,-9
17.740076,-16616,463,-116,-4,-34,-3,-10,-1,-9
17.750075,-16609,455,-111,0,-34,0,-6,-1,-6
17.760077,-16620,459,-124,1,-33,-2,-5,0,-8
17.770076,-16623,448,-125,1,-34,-7,-5,-1,-13
17.780076,-16625,430,-128,0,-34,-8,-6,-1,-14
17.790077,-16626,416,-131,1,-34,-7,-5,-1,-13
17.800075,-16615,425,-126,1,-35,-9,-5,-2,-15
17.810075,-16621,526,-166,-2,-36,-10,-8,-3,-16
17.820075,-16625,463,-128,-7,-35,-4,-13,-2,-10
17.830075,-16621,442,-124,1,-36,-2,-5,-3,-8
17.840076,-16639,436,-138,4,-35,-3,-2,-2,-9
17.850076,-16620,442,-125,7,-34,-5,1,-1,-11
17.860075,-16617,448,-135,4,-33,-7,-2,0,-13
17.870073,-16630,478,-136,-1,-33,-8,-7,0,-14
17.880072,-16630,477,-131,-1,-33,-6,-7,0,-12
17.890076,-16617,472,-129,0,-33,-4,-6,0,-10
17.900075,-16613,489,-117,0,-34,-8,-6,-1,-14
17.910076,-16621,473,-118,-2,-35,-9,-8,-2,-15
17.920076,-16628,484,-130,-1,-36,-11,-7,-3,-17
17.930076,-16634,470,-132,0,-37,-18,-6,-4,-24
17.940075,-16632,456,-133,4,-40,-28,-2,-7,-34
17.950076,-16647,430,-143,6,-37,-32,0,-4,-38
17.960075,-16645,410,-115,5,-40,-37,-1,-7,-43
17.970076,-16615,407,-138,0,-44,-52,-6,-11,-58
17.980076,-16610,378,-147,-3,-42,-44,-9,-9,-50
17.990075,-16605,323,-188,-13,-39,-30,-19,-6,-36
18.000076,-16605,292,-212,-19,-39,-28,-25,-6,-34
18.010075,-16607,282,-223,-33,-37,-29,-39,-4,-35
18.020076,-16629,372,-219,-37,-37,-30,-43,-4,-36
18.030077,-16628,418,-193,-38,-37,-30,-44,-4,-36
18.040075,-16610,472,-102,-35,-36,-30,-41,-3,-36
18.050076,-16616,503,-57,-29,-35,-29,-35,-2,-35
18.060076,-16614,508,-41,-14,-35,-23,-20,-2,-29
18.070073,-16626,471,-53,-8,-35,-20,-14,-2,-26
18.080072,-16626,470,-75,-3,-35,-18,-9,-2,-24
18.090072,-16613,486,-108,5,-37,-24,-1,-4,-30
18.100075,-16612,459,-113,9,-38,-28,3,-5,-34
18.110075,-16616,419,-118,18,-40,-34,12,-7,-40
18.120076,-16626,408,-121,21,-40,-34,15,-7,-40
18.130076,-16634,401,-133,24,-40,-38,18,-7,-44
18.140074,-16661,402,-134,25,-42,-43,19,-9,-49
18.150075,-16660,374,-123,27,-44,-46,21,-11,-52
18.160075,-16668,371,-120,24,-45,-45,18,-12,-51
18.170075,-16708,373,-122,22,-46,-46,16,-13,-52
18.180075,-16843,373,-166,19,-51,-46,13,-18,-52
18.190075,-16776,363,-133,17,-57,-50,11,-24,-56
18.200076,-16754,398,-116,25,-60,-30,19,-27,-36
18.210075,-16698,384,-129,29,-63,-21,23,-30,-27
18.220076,-16663,405,-126,29,-66,-28,23,-33,-34
18.230076,-16711,314,-147,31,-74,-9,25,-41,-15
18.240076,-16674,346,-76,23,-78,-2,17,-45,-8
18.250075,-16577,386,-121,24,-79,4,18,-46,-2
18.260075,-16570,321,-99,18,-79,9,12,-46,3
18.270072,-16512,344,-101,17,-74,18,11,-41,12
18.280075,-16506,327,-102,15,-70,15,9,-37,9
18.290071,-16507,311,-90,14,-72,10,8,-39,4
18.300076,-16525,291,-79,15,-72,-25,9,-39,-31
18.310076,-16549,213,-54,11,-70,-38,5,-37,-44
18.320075,-16565,245,-70,3,-65,-49,-3,-32,-55
18.330075,-16556,298,-23,0,-57,-46,-6,-24,-52
18.340075,-16568,318,-27,-5,-45,-37,-11,-12,-43
18.350075,-16597,326,-75,-11,-29,-19,-17,4,-25
18.360075,-16625,329,-91,-14,-26,-11,-20,7,-17
18.370075,-16639,321,-97,-18,-24,1,-24,9,-5
18.380075,-16663,320,-145,-18,-27,10,-24,6,4
18.390074,-16647,320,-129,-23,-34,26,-29,-1,20
18.400077,-16675,315,-161,-27,-38,33,-33,-5,27
18.410075,-16627,374,-80,-30,-44,40,-36,-11,34
18.420072,-16640,374,-92,-22,-34,48,-28,-1,42
18.430072,-16600,323,-34,-26,-31,50,-32,2,44
18.440073,-16601,346,-53,-27,-24,40,-33,9,34
18.450075,-16599,335,-36,-28,-21,25,-34,12,19
18.460072,-16597,321,-21,-32,-14,-13,-38,19,-19
18.470074,-16660,394,-30,-34,-8,-24,-40,25,-30
18.480088,-16681,395,-47,-34,0,-27,-40,33,-33
18.490073,-16610,446,23,-31,17,-20,-37,50,-26
18.500072,-16571,498,119,-25,35,-17,-31,68,-23
18.510075,-16635,432,-2,0,80,-4,-6,113,-10
18.520072,-16666,334,-122,5,80,-7,-1,113,-13
18.530076,-16704,266,-192,0,25,-18,-6,58,-24
18.540072,-16674,260,-268,-8,-9,-22,-14,24,-28
18.550072,-16626,245,-273,-16,-32,-24,-22,1,-30
18.560084,-16614,298,-176,-31,-32,-11,-37,1,-17
18.570090,-16626,396,-147,-30,-25,4,-36,8,-2
18.580074,-16621,419,-126,-25,-7,20,-31,26,14
18.590070,-16515,448,-101,-21,-5,15,-27,28,9
18.600066,-16539,483,-89,-14,-6,11,-20,27,5
18.610070,-16580,439,-120,0,-11,11,-6,22,5
18.620067,-16602,405,-153,2,-13,9,-4,20,3
18.630069,-16629,364,-177,0,-23,1,-6,10,-5
18.640067,-16629,358,-166,-1,-28,-1,-7,5,-7
18.650067,-16627,345,-151,3,-38,-14,-3,-5,-20
18.660066,-16676,322,-200,2,-47,-20,-4,-14,-26
18.670069,-16679,308,-216,-4,-57,-26,-10,-24,-32
18.680066,-16600,419,-67,-6,-60,-37,-12,-27,-43
18.690072,-16602,433,-73,-1,-56,-39,-7,-23,-45
18.700071,-16618,378,-89,1,-48,-37,-5,-15,-43
18.710075,-16622,377,-91,1,-47,-37,-5,-14,-43
18.720073,-16628,332,-88,0,-41,-24,-6,-8,-30
18.730074,-16635,324,-102,0,-38,-17,-6,-5,-23
18.740071,-16624,327,-102,1,-37,-12,-5,-4,-18
18.750075,-16626,332,-90,3,-33,-1,-3,0,-7
18.760072,-16628,301,-98,-1,-30,1,-7,3,-5
18.770087,-16614,287,-93,-5,-27,7,-11,6,1
18.780311,-16617,321,-98,-5,-25,8,-11,8,2
18.790174,-16631,345,-123,-6,-24,8,-12,9,2
18.801185,-16603,361,-98,-6,-21,8,-12,12,2
18.810082,-16600,381,-97,-6,-20,8,-12,13,2
18.820100,-16623,390,-142,-4,-20,2,-10,13,-4
18.830167,-16651,401,-188,-3,-24,-1,-9,9,-7
18.840105,-16665,386,-218,-7,-45,-11,-13,-12,-17
18.850245,-16581,439,-69,-9,-51,-19,-15,-18,-25
18.860102,-16624,384,-113,-3,-48,-24,-9,-15,-30
18.870135,-16616,369,-123,-1,-45,-30,-7,-12,-36
18.880098,-16608,319,-117,-3,-45,-30,-9,-12,-36
18.890060,-16633,330,-135,-5,-39,-21,-11,-6,-27
18.900061,-16638,325,-132,-8,-38,-18,-14,-5,-24
18.910077,-16638,318,-121,-15,-35,-10,-21,-2,-16
18.920100,-16626,323,-143,-18,-35,-4,-24,-2,-10
18.930089,-16627,319,-133,-20,-35,0,-26,-2,-6
18.940061,-16627,284,-129,-22,-33,4,-28,0,-2
18.950089,-16632,277,-118,-21,-32,9,-27,1,3
18.960046,-16619,285,-107,-16,-30,11,-22,3,5
18.970045,-16632,293,-126,-15,-30,12,-21,3,6
18.980045,-16628,329,-133,-13,-32,10,-19,1,4
18.990046,-16633,383,-118,-1,-31,-11,-7,2,-17
19.000047,-16650,380,-127,5,-32,-30,-1,1,-36
19.010046,-16658,326,-123,11,-33,-55,5,0,-61
19.020051,-16666,309,-123,12,-33,-67,6,0,-73
19.030045,-16678,285,-118,10,-27,-91,4,6,-97
19.040047,-16662,197,-125,7,-27,-104,1,6,-110
19.050046,-16641,143,-102,10,-29,-120,4,4,-126
19.060047,-16682,266,-129,7,-32,-136,1,1,-142
19.070045,-16628,257,-126,6,-34,-119,0,-1,-125
19.080044,-16726,214,-144,28,-39,-102,22,-6,-108
19.090046,-16784,157,-130,32,-41,-97,26,-8,-103
19.100047,-16862,118,-155,37,-45,-82,31,-12,-88
19.110046,-16941,75,-156,37,-52,-77,31,-19,-83
19.120047,-16938,-30,-133,37,-60,-88,31,-27,-94
19.130046,-16921,69,-95,44,-74,-123,38,-41,-129
19.140047,-16964,102,-49,52,-73,-144,46,-40,-150
19.150046,-16824,128,-113,27,-60,-162,21,-27,-168
19.160046,-16567,155,-121,12,-55,-150,6,-22,-156
19.170046,-16406,194,-127,-3,-51,-132,-9,-18,-138
19.180046,-16164,217,-127,-33,-30,-74,-39,3,-80
19.190045,-16124,262,-96,-43,-22,-49,-49,11,-55
19.200047,-16249,405,-85,-54,-2,-21,-60,31,-27
19.210045,-16433,343,-108,-52,-3,-13,-58,30,-19
19.220046,-16461,347,-109,-42,-14,-14,-48,19,-20
19.230045,-16538,286,-122,-38,-18,-12,-44,15,-18
19.240047,-16548,217,-134,-33,-23,-16,-39,10,-22
19.250045,-16566,150,-105,-32,-38,-55,-38,-5,-61
19.260046,-16550,138,-91,-29,-42,-77,-35,-9,-83
19.270046,-16585,151,-87,-24,-47,-115,-30,-14,-121
19.280046,-16625,211,-96,-18,-48,-121,-24,-15,-127
19.290046,-16619,200,-83,-7,-42,-90,-13,-9,-96
19.300047,-16621,201,-113,-1,-39,-79,-7,-6,-85
19.310046,-16629,189,-113,1,-38,-75,-5,-5,-81
19.320047,-16627,128,-114,8,-40,-71,2,-7,-77
19.330045,-16628,124,-117,11,-42,-68,5,-9,-74
19.340046,-16651,105,-120,11,-41,-57,5,-8,-63
19.350045,-16658,95,-111,11,-40,-45,5,-7,-51
19.360047,-16646,46,-107,15,-42,-32,9,-9,-38
19.370045,-16644,-5,-85,17,-42,-26,11,-9,-32
19.380046,-16645,4,-81,20,-41,-16,14,-8,-22
19.390045,-16642,54,-96,14,-35,5,8,-2,-1
19.400046,-16637,70,-93,9,-33,18,3,0,12
19.410046,-16641,73,-90,9,-27,36,3,6,30
19.420046,-16679,71,-101,9,-28,33,3,5,27
19.430045,-16829,96,-102,12,-29,22,6,4,16
19.440067,-17020,91,-96,32,-29,-8,26,4,-14
19.450047,-17057,88,-88,46,-33,-27,40,0,-33
19.460047,-17006,53,-91,82,-41,-54,76,-8,-60
19.470045,-16959,88,-84,95,-40,-54,89,-7,-60
19.480045,-16712,271,-148,97,-39,-26,91,-6,-32
19.490046,-16566,-27,-52,98,-39,-24,92,-6,-30
19.500046,-16500,2,-41,107,-42,-36,101,-9,-42
19.510045,-16301,-10,-96,94,-44,-70,88,-11,-76
19.520047,-16244,46,-103,79,-44,-78,73,-11,-84
19.530045,-16331,59,-113,55,-41,-55,49,-8,-61
19.540045,-16390,104,-121,44,-39,-44,38,-6,-50
19.550063,-16439,75,-117,26,-35,-24,20,-2,-30
19.560045,-16512,62,-106,21,-34,-15,15,-1,-21
19.570044,-16520,63,-102,19,-33,-6,13,0,-12
19.580044,-16576,46,-92,17,-31,6,11,2,0
19.590045,-16592,43,-95,18,-28,13,12,5,7
19.600046,-16602,29,-93,19,-28,18,13,5,12
19.610045,-16608,44,-98,17,-29,17,11,4,11
19.620049,-16609,50,-90,12,-30,14,6,3,8
19.630046,-16615,52,-102,7,-30,12,1,3,6
19.640045,-16612,51,-92,4,-30,8,-2,3,2
19.650047,-16623,57,-86,1,-31,1,-5,2,-5
19.660046,-16613,57,-87,1,-31,-1,-5,2,-7
19.670045,-16614,51,-87,0,-32,-4,-6,1,-10
19.680045,-16614,40,-87,1,-32,-4,-5,1,-10
19.690045,-16616,43,-100,1,-33,-4,-5,0,-10
19.700048,-16623,48,-101,0,-35,-4,-6,-2,-10
19.710046,-16623,48,-90,-3,-35,-4,-9,-2,-10
19.720046,-16616,47,-90,-10,-35,-4,-16,-2,-10
19.730045,-16615,48,-91,-11,-34,-3,-17,-1,-9
19.740047,-16614,49,-89,-14,-34,-3,-20,-1,-9
19.750046,-16622,14,-76,-15,-33,-1,-21,0,-7
19.760046,-16622,10,-72,-15,-31,2,-21,2,-4
19.770046,-16620,39,-89,-14,-31,7,-20,2,1
19.780046,-16622,47,-98,-13,-31,9,-19,2,3
19.790046,-16621,49,-84,-8,-34,8,-14,-1,2
19.800046,-16614,57,-78,-6,-34,4,-12,-1,-2
19.810046,-16614,60,-86,-3,-33,-4,-9,0,-10
19.820056,-16610,36,-84,-1,-34,-11,-7,-1,-17
19.830059,-16618,61,-94,0,-35,-23,-6,-2,-29
19.840045,-16629,53,-112,4,-36,-39,-2,-3,-45
19.850046,-16630,64,-110,5,-39,-51,-1,-6,-57
19.860046,-16635,69,-116,7,-42,-64,1,-9,-70
19.870046,-16644,54,-107,8,-42,-63,2,-9,-69
19.880067,-16640,46,-106,13,-41,-52,7,-8,-58
19.890047,-16629,16,-101,14,-40,-45,8,-7,-51
19.900047,-16636,4,-96,12,-40,-39,6,-7,-45
19.910046,-16626,-18,-105,6,-37,-31,0,-4,-37
19.920046,-16627,-19,-106,3,-38,-33,-3,-5,-39
19.930046,-16627,-21,-110,-3,-39,-38,-9,-6,-44
19.940046,-16642,-15,-129,-6,-38,-31,-12,-5,-37
19.950046,-16639,-11,-119,-9,-36,-20,-15,-3,-26
19.960046,-16635,-16,-103,-19,-34,-3,-25,-1,-9
19.970046,-16628,-11,-103,-22,-33,2,-28,0,-4
19.980045,-16637,0,-111,-21,-32,8,-27,1,2
19.990045,-16629,0,-107,-19,-32,10,-25,1,4
20.000072,-16621,2,-107,-12,-31,9,-18,2,3
20.010046,-16631,11,-92,-10,-30,7,-16,3,1
20.020046,-16637,15,-87,-8,-30,5,-14,3,-1
20.030046,-16629,17,-107,-6,-30,0,-12,3,-6
20.040046,-16621,4,-111,-8,-31,-1,-14,2,-7
20.050046,-16624,-5,-100,-9,-32,-1,-15,1,-7
20.060045,-16631,-10,-80,-9,-32,-1,-15,1,-7
20.070068,-16625,-5,-77,-8,-30,0,-14,3,-6
20.080066,-16610,41,-94,-13,-29,-1,-19,4,-7
20.090055,-16622,2,-86,-11,-27,-3,-17,6,-9
20.100046,-16634,14,-95,-9,-25,-4,-15,8,-10
20.110045,-16636,22,-103,-8,-27,-2,-14,6,-8
20.120046,-16648,13,-115,-6,-32,-3,-12,1,-9
20.130047,-16646,16,-115,-6,-35,-4,-12,-2,-10
20.140046,-16637,11,-118,-2,-39,-8,-8,-6,-14
20.150045,-16634,-15,-121,0,-41,-10,-6,-8,-16
20.160046,-16617,9,-90,-1,-42,-10,-7,-9,-16
20.170045,-16628,-11,-98,-3,-38,-6,-9,-5,-12
20.180045,-16643,-18,-108,-8,-37,-3,-14,-4,-9
20.190045,-16628,-21,-95,-11,-37,-1,-17,-4,-7
20.200046,-16625,-30,-73,-9,-36,0,-15,-3,-6
20.210045,-16629,-22,-72,-10,-35,2,-16,-2,-4
20.220046,-16630,-18,-80,-16,-35,3,-22,-2,-3
20.230046,-16623,-24,-80,-18,-34,7,-24,-1,1
20.240046,-16644,-16,-82,-19,-33,15,-25,0,9
20.250046,-16639,-6,-81,-15,-34,16,-21,-1,10
20.260045,-16633,2,-78,-20,-31,18,-26,2,12
20.270045,-16625,32,-112,-22,-33,8,-28,0,2
20.280055,-16623,9,-103,-22,-36,-4,-28,-3,-10
20.290045,-16622,60,-91,-14,-34,-6,-20,-1,-12
20.300046,-16615,61,-78,-5,-34,-10,-11,-1,-16
20.310046,-16606,108,-72,17,-39,-46,11,-6,-52
20.320046,-16619,17,-68,27,-39,-54,21,-6,-60
20.330045,-16622,35,-75,45,-40,-60,39,-7,-66
20.340046,-16633,9,-90,50,-43,-67,44,-10,-73
20.350045,-16625,-28,-135,52,-50,-83,46,-17,-89
20.360045,-16752,-31,-181,47,-83,-178,41,-50,-184
20.370046,-16829,-172,-287,51,-116,-235,45,-83,-241
20.380046,-16821,-335,-358,44,-180,-262,38,-147,-268
20.390045,-16755,-342,-320,31,-193,-245,25,-160,-251
20.400047,-16629,-470,-493,14,-190,-219,8,-157,-225
20.410045,-16888,-101,-113,1,-225,-194,-5,-192,-200
20.420045,-16877,-144,-126,8,-258,-175,2,-225,-181
20.430045,-16782,-210,-82,21,-306,-133,15,-273,-139
20.440045,-16743,-102,-56,26,-320,-107,20,-287,-113
20.450045,-16681,-117,-24,35,-337,-72,29,-304,-78
20.460046,-16660,-96,39,43,-342,-62,37,-309,-68
20.470045,-16662,-115,118,43,-340,-39,37,-307,-45
20.480048,-16642,-160,210,59,-327,9,53,-294,3
20.490044,-16633,-207,211,58,-315,28,52,-282,22
20.500046,-16636,-256,240,53,-307,31,47,-274,25
20.510045,-16608,-199,248,49,-304,25,43,-271,19
20.520045,-16576,-140,266,19,-294,10,13,-261,4
20.530045,-16555,-248,286,13,-292,-2,7,-259,-8
20.540045,-16541,-278,277,8,-292,-24,2,-259,-30
20.550045,-16547,-228,317,1,-298,-69,-5,-265,-75
20.560045,-16513,-195,389,2,-297,-83,-4,-264,-89
20.570045,-16529,-161,456,9,-280,-92,3,-247,-98
20.580045,-16530,-167,474,10,-268,-88,4,-235,-94
20.590045,-16515,-147,482,8,-244,-85,2,-211,-91
20.600045,-16461,-107,521,1,-232,-82,-5,-199,-88
20.610044,-16438,-102,546,-8,-217,-72,-14,-184,-78
20.620045,-16484,-193,604,-8,-182,-55,-14,-149,-61
20.630044,-16478,-153,595,-6,-163,-43,-12,-130,-49
20.640045,-16490,-186,595,0,-128,-21,-6,-95,-27
20.650045,-16518,-219,596,3,-111,-18,-3,-78,-24
20.660045,-16552,-232,594,2,-98,-14,-4,-65,-20
20.670045,-16531,-239,601,0,-73,-23,-6,-40,-29
20.680049,-16573,-230,585,0,-60,-27,-6,-27,-33
20.690044,-16649,-286,587,0,-35,-39,-6,-2,-45
20.700045,-16698,-328,560,4,-26,-50,-2,7,-56
20.710045,-16771,-385,567,19,-29,-95,13,4,-101
20.720045,-16894,-352,626,44,-44,-110,38,-11,-116
20.730045,-16898,-330,684,67,-67,-117,61,-34,-123
20.740045,-16933,-287,774,122,-134,-101,116,-101,-107
20.750044,-16912,-297,791,151,-175,-90,145,-142,-96
20.760045,-16817,-132,765,194,-260,-101,188,-227,-107
20.770045,-16891,-336,780,189,-299,-100,183,-266,-106
20.780045,-16912,-551,759,213,-379,-96,207,-346,-102
20.790046,-16865,-465,718,213,-408,-75,207,-375,-81
20.800044,-16863,-454,744,204,-437,-66,198,-404,-72
20.810045,-16847,-405,785,194,-499,-60,188,-466,-66
20.820045,-16817,-255,678,192,-527,-60,186,-494,-66
20.830045,-16534,-300,719,182,-555,-81,176,-522,-87
20.840045,-16491,-258,655,167,-551,-89,161,-518,-95
20.850045,-16404,-320,632,129,-521,-102,123,-488,-108
20.860046,-16313,-323,620,126,-493,-101,120,-460,-107
20.870044,-16301,-344,617,105,-463,-97,99,-430,-103
20.880048,-16114,-361,649,74,-393,-116,68,-360,-122
20.890043,-16121,-353,694,56,-357,-137,50,-324,-143
20.900045,-16141,-388,671,27,-286,-164,21,-253,-170
20.910045,-16352,-345,829,17,-257,-165,11,-224,-171
20.920045,-16358,-342,896,8,-235,-159,2,-202,-165
20.930045,-16454,-382,1002,9,-203,-142,3,-170,-148
20.940045,-16508,-351,1036,6,-188,-131,0,-155,-137
20.950045,-16620,-529,1106,24,-164,-95,18,-131,-101
20.960045,-16654,-577,1108,42,-159,-84,36,-126,-90
20.970044,-16636,-615,1126,47,-157,-79,41,-124,-85
20.980045,-16616,-591,1132,45,-158,-79,39,-125,-85
20.990045,-16636,-581,1138,42,-162,-87,36,-129,-93
21.000046,-16668,-448,1186,81,-178,-119,75,-145,-125
21.010045,-16683,-419,1211,101,-191,-140,95,-158,-146
21.020045,-16712,-393,1291,119,-217,-175,113,-184,-181
21.030045,-16733,-441,1309,139,-227,-178,133,-194,-184
21.040045,-16790,-415,1314,166,-269,-146,160,-236,-152
21.050045,-16806,-480,1388,153,-290,-106,147,-257,-112
21.060045,-16914,-603,1445,166,-314,-71,160,-281,-77
21.070045,-17002,-697,1479,217,-385,-16,211,-352,-22
21.080046,-17022,-723,1525,246,-436,-5,240,-403,-11
21.090042,-16926,-709,1598,289,-585,-26,283,-552,-32
21.100045,-17010,-648,1603,320,-671,-42,314,-638,-48
21.110044,-16938,-604,1696,378,-845,-57,372,-812,-63
21.120045,-16705,-672,1759,409,-935,-51,403,-902,-57
21.130045,-16633,-753,1772,441,-1026,-38,435,-993,-44
21.140045,-16646,-885,1862,495,-1217,42,489,-1184,36
21.150045,-16753,-940,1846,537,-1325,119,531,-1292,113
21.160045,-16721,-969,1713,616,-1537,294,610,-1504,288
21.170044,-16847,-799,1844,661,-1645,358,655,-1612,352
21.180045,-16898,-761,1996,691,-1725,405,685,-1692,399
21.190045,-16625,-685,2096,789,-1855,467,783,-1822,461
21.200045,-16518,-532,2473,842,-1887,459,836,-1854,453
21.210045,-16065,-685,2310,1007,-1984,348,1001,-1951,342
21.220045,-15906,-821,2356,1068,-2019,217,1062,-1986,211
21.230044,-16015,-805,2395,1146,-1950,-232,1140,-1917,-238
21.240045,-16236,-601,2829,1173,-1986,-508,1167,-1953,-514
21.250045,-16535,-227,2983,1182,-2041,-788,1176,-2008,-794
21.260045,-16217,147,3728,1111,-2245,-1088,1105,-2212,-1094
21.270045,-16093,110,3898,1065,-2325,-1126,1059,-2292,-1132
21.280050,-15697,-291,3984,981,-2429,-1080,975,-2396,-1086
21.290042,-15537,-668,4158,951,-2447,-1005,945,-2414,-1011
21.300045,-15557,-700,4220,889,-2450,-819,883,-2417,-825
21.310045,-15727,-626,4403,837,-2426,-746,831,-2393,-752
21.320045,-15596,-615,4572,780,-2365,-692,774,-2332,-698
21.330044,-15629,-671,4972,697,-2187,-682,691,-2154,-688
21.340044,-15717,-749,5239,689,-2105,-708,683,-2072,-714
21.350044,-16105,-932,5622,755,-1954,-792,749,-1921,-798
21.360044,-16476,-1006,5733,791,-1891,-789,785,-1858,-795
21.370045,-16861,-993,5946,851,-1782,-611,845,-1749,-617
21.380045,-16992,-729,6228,843,-1748,-487,837,-1715,-493
21.390044,-16889,-765,6214,820,-1705,-331,814,-1672,-337
21.400045,-16243,-898,6237,736,-1724,-77,730,-1691,-83
21.410044,-15983,-987,6436,683,-1741,-10,677,-1708,-16
21.420044,-15930,-1031,6510,614,-1778,112,608,-1745,106
21.430045,-15956,-725,6566,604,-1796,186,598,-1763,180
21.440043,-15699,-145,7117,618,-1920,262,612,-1887,256
21.450044,-15587,-309,7028,600,-1864,370,594,-1831,364
21.460044,-15399,-373,7364,539,-1886,339,533,-1853,333
21.470044,-15252,-288,7457,504,-1956,240,498,-1923,234
21.480045,-15043,-355,7422,485,-1957,210,479,-1924,204
21.490042,-14875,-561,7422,434,-2100,193,428,-2067,187
21.500044,-14573,-284,7474,382,-2173,243,376,-2140,237
21.510044,-14305,-211,7550,327,-2209,332,321,-2176,326
21.520047,-14154,-214,7583,206,-2233,498,200,-2200,492
21.530044,-13809,-355,7566,115,-2254,515,109,-2221,509
21.540044,-13469,-227,7661,-84,-2199,504,-90,-2166,498
21.550045,-13281,-118,7699,-189,-2155,497,-195,-2122,491
21.560045,-13118,-46,7712,-423,-2114,506,-429,-2081,500
21.570045,-13022,-78,7944,-540,-2096,533,-546,-2063,527
21.580051,-12833,-164,8056,-651,-2072,554,-657,-2039,548
21.590044,-12742,-128,8309,-816,-2045,539,-822,-2012,533
21.600044,-12637,-75,8528,-856,-2057,536,-862,-2024,530
21.610044,-12707,-30,8736,-814,-2160,620,-820,-2127,614
21.620045,-12863,-320,9160,-726,-2246,706,-732,-2213,700
21.630044,-13047,-537,9402,-613,-2327,830,-619,-2294,824
21.640044,-13467,-247,10131,-556,-2333,1038,-562,-2300,1032
21.650059,-13740,-160,9982,-584,-2236,1057,-590,-2203,1051
21.660068,-13161,-673,10468,-632,-2188,1202,-638,-2155,1196
21.670045,-13436,-751,10055,-583,-2212,1292,-589,-2179,1286
21.680049,-13029,-254,10413,-632,-2218,1418,-638,-2185,1412
21.690043,-12957,-79,10520,-687,-2230,1450,-693,-2197,1444
21.700045,-12699,47,10622,-716,-2249,1494,-722,-2216,1488
21.710044,-12147,-142,10753,-702,-2296,1534,-708,-2263,1528
21.720044,-12014,-74,10785,-676,-2314,1539,-682,-2281,1533
21.730044,-11590,428,11073,-619,-2471,1635,-625,-2438,1629
21.740044,-11599,698,10966,-548,-2468,1487,-554,-2435,1481
21.750044,-11199,907,11189,-637,-2491,966,-643,-2458,960
21.760043,-11623,647,11608,-620,-2496,782,-626,-2463,776
21.770043,-11472,461,11714,-583,-2501,642,-589,-2468,636
21.780043,-11098,134,11905,-461,-2495,467,-467,-2462,461
21.790044,-11046,3,12000,-391,-2487,418,-397,-2454,412
21.800044,-10869,213,11974,-301,-2476,337,-307,-2443,331
21.810045,-10714,194,11913,-340,-2489,286,-346,-2456,280
21.820043,-10677,73,11975,-485,-2470,161,-491,-2437,155
21.830044,-10332,-89,12417,-527,-2477,113,-533,-2444,107
21.840044,-10237,129,12709,-524,-2478,102,-530,-2445,96
21.850044,-9978,404,13086,-408,-2457,224,-414,-2424,218
21.860044,-9663,400,13137,-310,-2460,310,-316,-2427,304
21.870044,-9634,525,13374,-79,-2480,449,-85,-2447,443
21.880047,-9178,583,13410,25,-2506,484,19,-2473,478
21.890042,-9124,594,13472,127,-2538,488,121,-2505,482
21.900043,-8982,841,13468,266,-2588,402,260,-2555,396
21.910044,-8994,932,13561,294,-2612,354,288,-2579,348
21.920042,-8735,695,13685,308,-2612,289,302,-2579,283
21.930043,-8542,522,13550,332,-2582,263,326,-2549,257
21.940042,-8538,554,13644,329,-2498,189,323,-2465,183
21.950043,-8521,544,13592,277,-2451,133,271,-2418,127
21.960042,-8349,373,13649,202,-2393,75,196,-2360,69
21.970044,-8050,152,13995,28,-2229,-34,22,-2196,-40
21.980042,-7782,-119,14116,-31,-2120,-82,-37,-2087,-88
21.990044,-7532,-210,14318,-121,-1886,-149,-127,-1853,-155
22.000042,-7433,-13,14425,-168,-1764,-161,-174,-1731,-167
22.010043,-7336,229,14537,-241,-1537,-158,-247,-1504,-164
22.020065,-7050,686,14840,-244,-1439,-145,-250,-1406,-151
22.030045,-6930,802,14957,-218,-1353,-125,-224,-1320,-131
22.040043,-6753,850,15015,-87,-1213,-74,-93,-1180,-80
22.050044,-6735,922,14995,-8,-1175,-44,-14,-1142,-50
22.060043,-6618,1194,14958,105,-1172,-12,99,-1139,-18
22.070043,-6529,1253,14982,152,-1198,-3,146,-1165,-9
22.080050,-6440,1375,14986,266,-1294,0,260,-1261,-6
22.090042,-6296,1404,15010,321,-1355,-3,315,-1322,-9
22.100042,-6182,1248,15009,375,-1410,-6,369,-1377,-12
22.110044,-6202,857,15099,489,-1522,-32,483,-1489,-38
22.120043,-6095,699,15095,564,-1564,-38,558,-1531,-44
22.130044,-6129,685,15086,661,-1629,-18,655,-1596,-24
22.140042,-5961,782,15076,666,-1653,0,660,-1620,-6
22.150043,-5939,858,15070,670,-1674,6,664,-1641,0
22.160042,-5743,742,15133,613,-1699,16,607,-1666,10
22.170044,-5717,585,15215,580,-1703,16,574,-1670,10
22.180043,-5603,475,15270,553,-1687,22,547,-1654,16
22.190043,-5559,534,15428,560,-1667,44,554,-1634,38
22.200043,-5413,689,15480,561,-1575,119,555,-1542,113
22.210043,-5280,962,15511,550,-1516,150,544,-1483,144
22.220042,-5237,1175,15484,523,-1461,168,517,-1428,162
22.230083,-5084,1430,15476,405,-1365,161,399,-1332,155
22.242153,-4928,1481,15486,302,-1295,132,296,-1262,126
22.250075,-4675,1576,15559,268,-1270,121,262,-1237,115
22.260065,-4546,1570,15600,251,-1254,107,245,-1221,101
22.270055,-4427,1532,15609,264,-1246,93,258,-1213,87
22.280082,-4260,1517,15758,304,-1250,96,298,-1217,90
22.290057,-4181,1516,15792,357,-1250,103,351,-1217,97
22.300056,-3969,1441,15783,468,-1249,128,462,-1216,122
22.310072,-3843,1476,15840,520,-1249,156,514,-1216,150
22.320122,-3678,1543,15879,621,-1241,221,615,-1208,215
22.330124,-3630,1550,15816,661,-1241,247,655,-1208,241
22.340081,-3595,1551,15728,691,-1283,286,685,-1250,280
22.350082,-3466,1494,15619,686,-1318,302,680,-1285,296
22.360044,-3619,1519,15645,667,-1367,310,661,-1334,304
22.370041,-3505,1558,15633,577,-1451,312,571,-1418,306
22.380042,-3471,1589,15590,521,-1486,313,515,-1453,307
22.390043,-3471,1702,15614,383,-1545,308,377,-1512,302
22.400045,-3247,1641,15738,305,-1561,323,299,-1528,317
22.410044,-3044,1778,15805,233,-1567,321,227,-1534,315
22.420043,-2710,1956,16000,100,-1539,289,94,-1506,283
22.430044,-2546,1998,16094,38,-1508,259,32,-1475,253
22.440043,-2171,2008,16238,-28,-1422,212,-34,-1389,206
22.450062,-1987,2109,16275,-36,-1372,194,-42,-1339,188
22.460058,-1845,2168,16349,-16,-1253,179,-22,-1220,173
22.470043,-1525,2135,16511,11,-1181,172,5,-1148,166
22.480049,-1429,2123,16599,55,-1101,166,49,-1068,160
22.490042,-1332,2203,16558,186,-945,157,180,-912,151
22.500044,-1291,2281,16502,249,-877,155,243,-844,149
22.510043,-1209,2438,16412,347,-764,162,341,-731,156
22.520043,-1209,2436,16341,390,-720,169,384,-687,163
22.530043,-1217,2381,16272,474,-673,192,468,-640,186
22.540043,-1161,2315,16198,515,-665,211,509,-632,205
22.550043,-1145,2307,16213,552,-660,233,546,-627,227
22.560043,-1115,2290,16234,605,-641,264,599,-608,258
22.570044,-1082,2231,16155,610,-636,271,604,-603,265
22.580044,-1093,2287,16018,579,-659,272,573,-626,266
22.590044,-1093,2354,15987,546,-682,267,540,-649,261
22.600044,-1056,2403,16009,480,-728,258,474,-695,252
22.610043,-990,2419,16045,455,-748,254,449,-715,248
22.620044,-898,2456,16092,428,-756,256,422,-723,250
22.630043,-744,2618,16227,372,-741,236,366,-708,230
22.640045,-624,2654,16289,344,-719,217,338,-686,211
22.650046,-413,2653,16322,320,-638,186,314,-605,180
22.660043,-156,2801,16436,314,-588,169,308,-555,163
22.670042,-70,2881,16452,315,-535,149,309,-502,143
22.680045,-76,2959,16354,302,-428,100,296,-395,94
22.690044,-144,2990,16270,291,-384,72,285,-351,66
22.700044,-229,3047,16158,259,-328,21,253,-295,15
22.710042,-199,3080,16122,246,-316,-3,240,-283,-9
22.720043,-160,3105,16109,218,-308,-43,212,-275,-49
22.730043,-205,2993,16069,212,-309,-52,206,-276,-58
22.740042,-189,2961,16057,213,-314,-50,207,-281,-56
22.750043,-155,2944,16049,236,-330,-25,230,-297,-31
22.760043,-152,2963,16050,249,-334,-5,243,-301,-11
22.770043,-184,2928,16075,269,-346,32,263,-313,26
22.780043,-287,2942,16096,274,-355,36,268,-322,30
22.790043,-230,2910,16029,280,-360,47,274,-327,41
22.800043,-381,2890,15976,280,-373,54,274,-340,48
22.810043,-516,2885,15991,269,-393,54,263,-360,48
22.820043,-104,3297,16707,211,-312,13,205,-279,7
22.830043,-532,3203,16340,248,-248,-37,242,-215,-43
22.840043,-436,3263,16301,183,-174,-110,177,-141,-116
22.850043,-618,3415,16118,138,-148,-139,132,-115,-145
22.860043,-640,3386,16121,102,-130,-164,96,-97,-170
22.870044,-751,3400,16082,70,-103,-197,64,-70,-203
22.880046,-800,3381,16038,55,-97,-208,49,-64,-214
22.890041,-831,3413,15984,1,-92,-232,-5,-59,-238
22.900043,-793,3410,16009,-33,-91,-241,-39,-58,-247
22.910043,-742,3384,16044,-57,-87,-243,-63,-54,-249
22.920042,-743,3321,16016,-65,-85,-244,-71,-52,-250
22.930042,-744,3289,16009,-81,-85,-244,-87,-52,-250
22.940042,-661,3267,16027,-112,-86,-243,-118,-53,-249
22.950044,-579,3280,16039,-119,-85,-233,-125,-52,-239
22.960042,-443,3439,15967,-140,-84,-226,-146,-51,-232
22.970043,-410,3501,15940,-176,-87,-246,-182,-54,-252
22.980044,-377,3491,15942,-256,-94,-286,-262,-61,-292
22.990043,-389,3266,16055,-256,-91,-278,-262,-58,-284
23.000042,-402,3177,16117,-232,-87,-250,-238,-54,-256
23.010043,-338,3073,16115,-148,-77,-184,-154,-44,-190
23.020043,-373,3010,16117,-131,-76,-172,-137,-43,-178
23.030042,-177,2794,15950,-136,-67,-186,-142,-34,-192
23.040042,-439,3173,16132,-161,-65,-214,-167,-32,-220
23.050043,-299,2934,16231,-66,-59,-116,-72,-26,-122
23.060043,-295,3134,16119,-26,-57,-87,-32,-24,-93
23.070056,-286,3107,16104,-14,-58,-66,-20,-25,-72
23.080049,-268,2979,16122,-12,-57,-36,-18,-24,-42
23.090040,-254,2934,16134,-4,-55,-25,-10,-22,-31
23.100043,-251,2904,16132,-7,-52,-14,-13,-19,-20
23.110043,-251,2966,16104,-24,-50,-12,-30,-17,-18
23.120043,-247,2975,16082,-51,-50,-10,-57,-17,-16
23.130043,-261,2874,16119,-78,-49,-1,-84,-16,-7
23.140054,-249,2908,16099,-82,-49,3,-88,-16,-3
23.150061,-258,3046,16069,-106,-50,4,-112,-17,-2
23.160044,-267,3084,16072,-120,-52,2,-126,-19,-4
23.170043,-265,3061,16078,-137,-54,2,-143,-21,-4
23.180043,-261,2947,16115,-138,-54,2,-144,-21,-4
23.190043,-251,2899,16115,-138,-54,4,-144,-21,-2
23.200043,-218,2671,16159,-140,-53,6,-146,-20,0
23.210042,-215,2614,16195,-134,-51,8,-140,-18,2
23.220043,-415,2512,16203,-115,-37,44,-121,-4,38
23.230042,-534,2439,16196,-107,-25,84,-113,8,78
23.240042,-635,2341,16228,-75,8,194,-81,41,188
23.250041,-726,2390,16230,-50,26,248,-56,59,242
23.260042,-701,2545,16172,-33,41,284,-39,74,278
23.270042,-597,2954,16103,-22,47,285,-28,80,279
23.280051,-513,2993,16103,-25,41,275,-31,74,269
23.290040,-421,2980,16115,10,34,262,4,67,256
23.300043,-400,2985,16094,23,31,251,17,64,245
23.310041,-391,2890,16097,22,25,217,16,58,211
23.320043,-425,2841,16145,20,21,201,14,54,195
23.330042,-429,2850,16140,21,18,194,15,51,188
23.340043,-379,2969,16099,14,17,189,8,50,183
23.350042,-359,3101,16089,13,13,180,7,46,174
23.360041,-355,3193,16075,16,6,137,10,39,131
23.370042,-237,3343,16051,13,-3,112,7,30,106
23.380042,-188,3319,16057,16,-11,87,10,22,81
23.390042,-114,3269,16045,14,-29,43,8,4,37
23.400043,-70,3180,16068,19,-35,28,13,-2,22
23.410042,-14,3207,16087,50,-42,13,44,-9,7
23.420043,-84,3252,16048,53,-46,-2,47,-13,-8
23.430041,-114,3289,16047,30,-64,-68,24,-31,-74
23.440042,-188,3327,16030,15,-74,-101,9,-41,-107
23.450042,-215,3286,16059,12,-83,-125,6,-50,-131
23.460042,-202,3128,16091,28,-94,-144,22,-61,-150
23.470042,-202,3054,16060,35,-99,-151,29,-66,-157
23.480045,-248,2969,16034,-18,-113,-204,-24,-80,-210
23.490041,-226,2793,16069,-55,-115,-213,-61,-82,-219
23.500042,-245,2737,16082,-127,-111,-221,-133,-78,-227
23.510041,-190,2536,16138,-163,-106,-227,-169,-73,-233
23.520042,-144,2584,16176,-199,-104,-235,-205,-71,-241
23.530042,23,2501,16145,-242,-93,-236,-248,-60,-242
23.540043,41,2420,16178,-254,-86,-217,-260,-53,-223
23.550041,-123,2542,16278,-238,-61,-182,-244,-28,-188
23.560042,-131,2505,16297,-188,-51,-130,-194,-18,-136
23.570041,-110,2529,16263,-114,-39,-61,-120,-6,-67
23.580043,-190,2586,16226,-87,-34,-40,-93,-1,-46
23.590042,-208,2609,16206,-67,-31,-26,-73,2,-32
23.600042,-222,2671,16183,-45,-29,-13,-51,4,-19
23.610041,-228,2660,16183,-37,-26,-7,-43,7,-13
23.620042,-237,2669,16183,-14,-20,12,-20,13,6
23.630041,-191,2726,16175,-2,-16,27,-8,17,21
23.640042,-170,2761,16159,8,-14,40,2,19,34
23.650041,-111,2793,16139,12,-12,51,6,21,45
23.660042,-160,2840,16136,8,-13,49,2,20,43
23.670041,-150,2957,16129,23,-16,41,17,17,35
23.680057,-155,3035,16104,23,-21,33,17,12,27
23.690042,-201,3020,16106,44,-26,18,38,7,12
23.700043,-227,2957,16111,57,-29,12,51,4,6
23.710041,-223,2944,16116,71,-30,8,65,3,2
23.720042,-256,2922,16104,79,-32,3,73,1,-3
23.730041,-257,2915,16100,73,-35,3,67,-2,-3
23.740042,-253,2894,16089,62,-38,3,56,-5,-3
23.750041,-254,2886,16090,54,-39,3,48,-6,-3
23.760042,-264,2863,16113,47,-39,4,41,-6,-2
23.770041,-310,2925,16137,57,-39,5,51,-6,-1
23.780041,-338,2962,16113,67,-41,7,61,-8,1
23.790042,-377,3010,16091,79,-43,11,73,-10,5
23.800042,-382,2994,16093,80,-43,15,74,-10,9
23.810041,-351,2919,16112,84,-44,25,78,-11,19
23.820042,-328,2880,16117,85,-44,30,79,-11,24
23.830041,-309,2818,16122,83,-42,39,77,-9,33
23.840043,-346,2694,16145,83,-38,44,77,-5,38
23.850041,-325,2666,16147,81,-36,50,75,-3,44
23.860042,-359,2649,16140,83,-24,79,77,9,73
23.870041,-387,2523,16190,72,-16,104,66,17,98
23.880046,-369,2540,16183,93,0,146,87,33,140
23.890060,-405,2602,16152,90,5,160,84,38,154
23.900070,-379,2631,16141,56,10,167,50,43,161
23.910067,-328,2613,16171,40,12,169,34,45,163
23.920069,-304,2626,16145,21,17,179,15,50,173
23.930067,-289,2632,16140,-8,28,206,-14,61,200
23.940069,-277,2636,16139,-23,35,224,-29,68,218
23.950067,-227,2732,16137,-41,47,257,-47,80,251
23.960066,-199,2740,16133,-42,52,272,-48,85,266
23.970066,-209,2769,16144,-41,57,284,-47,90,278
23.980070,-179,2832,16128,-31,64,307,-37,97,301
23.990067,-193,2828,16134,-24,67,314,-30,100,308
24.000070,-198,2985,16091,-4,69,308,-10,102,302
24.010066,-213,3030,16077,-9,66,293,-15,99,287
24.020066,-190,3073,16108,-15,56,262,-21,89,256
24.030073,-216,3237,16052,-17,51,247,-23,84,241
24.040071,-175,3605,15909,-61,44,223,-67,77,217
24.050071,199,4133,15866,-333,-2,-35,-339,31,-41
24.060070,455,3937,15925,-421,-15,-212,-427,18,-218
24.070070,210,3476,16106,-394,-71,-290,-400,-38,-296
24.080075,33,3177,16322,-349,-49,-241,-355,-16,-247
24.090065,-191,2767,16274,-225,40,-33,-231,73,-39
24.100063,-399,2433,16050,-126,31,76,-132,64,70
24.110065,-487,2503,15817,-49,-37,167,-55,-4,161
24.120064,-425,2598,16351,96,-95,247,90,-62,241
24.130064,-387,2581,16268,170,-71,219,164,-38,213
24.140064,-571,2787,16140,189,-38,206,183,-5,200
24.150064,-556,2840,16109,158,-28,212,152,5,206
24.160064,-527,2880,16129,123,-19,214,117,14,208
24.170063,-472,3005,16082,105,-16,220,99,17,214
24.180063,-433,3094,16036,67,-16,222,61,17,216
24.190166,-335,3178,15997,-60,-20,220,-66,13,214
24.200072,-292,3133,16049,-107,-19,233,-113,14,227
24.210071,-304,3220,16041,-155,-21,240,-161,12,234
24.220070,-227,3267,16053,-179,-27,225,-185,6,219
24.230070,-140,3249,16021,-201,-38,199,-207,-5,193
24.240070,-23,3138,15972,-271,-77,98,-277,-44,92
24.250070,-141,2957,15988,-326,-95,62,-332,-62,56
24.260070,-382,2557,16257,-383,-113,-51,-389,-80,-57
24.270067,-120,2785,16143,-324,-105,-59,-330,-72,-65
24.280070,-60,2880,16133,-274,-114,-114,-280,-81,-120
24.290066,13,2887,16048,-279,-118,-119,-285,-85,-125
24.300070,-80,2696,16112,-294,-118,-117,-300,-85,-123
24.310070,-161,2296,16284,-256,-113,-116,-262,-80,-122
24.320070,-206,2166,16257,-219,-99,-107,-225,-66,-113
24.330069,-302,2186,16241,-160,-84,-83,-166,-51,-89
24.340069,-313,2075,16263,-161,-79,-64,-167,-46,-70
24.350070,-333,2005,16268,-111,-72,-32,-117,-39,-38
24.360070,-318,1997,16344,-67,-60,-14,-73,-27,-20
24.370070,-306,2101,16297,-20,-51,-9,-26,-18,-15
24.380068,-269,2244,16226,2,-41,-3,-4,-8,-9
24.390069,-247,2266,16230,0,-39,-4,-6,-6,-10
24.400071,-204,2293,16273,4,-34,-2,-2,-1,-8
24.410069,-248,2283,16342,-4,-15,-6,-10,18,-12
24.420070,-287,2327,16333,-28,48,-19,-34,81,-25
24.430069,-235,2511,16315,-26,87,-20,-32,120,-26
24.440069,-275,2550,16230,-16,118,-23,-22,151,-29
24.450070,-229,2552,16339,13,172,22,7,205,16
24.460070,-647,2225,16289,25,236,111,19,269,105
24.470066,-635,2499,16299,13,289,168,7,322,162
24.480067,-389,2915,16154,-2,310,144,-8,343,138
24.490066,-226,3061,16068,-12,319,130,-18,352,124
24.500069,-314,2895,15832,-5,257,105,-11,290,99
24.510069,-377,2935,15816,5,173,82,-1,206,76
24.520069,-429,3030,15858,-43,19,44,-49,52,38
24.530069,-449,3032,15916,-85,-37,23,-91,-4,17
24.540070,-450,2827,15988,-149,-120,-43,-155,-87,-49
24.550069,-608,2829,16010,-171,-145,-64,-177,-112,-70
24.560070,-661,2688,16063,-191,-166,-69,-197,-133,-75
24.570069,-519,2571,16230,-220,-168,-76,-226,-135,-82
24.580069,-491,2364,16292,-335,-147,-51,-341,-114,-57
24.590069,-629,2576,16096,-572,-107,0,-578,-74,-6
24.600070,-814,2664,16144,-601,-103,32,-607,-70,26
24.610068,-919,2725,16105,-517,-53,213,-523,-20,207
24.620074,-905,2592,16050,-465,-33,331,-471,0,325
24.630069,-801,2425,16076,-445,-24,443,-451,9,437
24.640069,-397,1973,16287,-412,-6,578,-418,27,572
24.650069,-198,1790,16406,-331,19,587,-337,52,581
24.660066,-66,1579,16489,-89,86,536,-95,119,530
24.670070,42,1667,16458,20,114,487,14,147,481
24.680069,-67,1818,16351,180,143,414,174,176,408
24.690065,-108,2145,16219,219,144,382,213,177,376
24.700063,-222,2228,16147,224,149,371,218,182,365
24.710064,-328,2328,16182,196,133,335,190,166,329
24.720063,-441,2408,16213,215,139,320,209,172,314
24.730062,-455,2467,16216,288,195,339,282,228,333
24.740093,-507,2472,16172,282,209,346,276,242,340
24.750065,-330,2321,16217,246,200,332,240,233,326
24.760064,-317,2127,16190,193,123,280,187,156,274
24.770063,-166,2015,16240,214,96,243,208,129,237
24.780064,-243,2075,16178,316,104,200,310,137,194
24.790070,-237,2076,16055,358,115,192,352,148,186
