# fs_hz,100.0
# duration_s,4500
# gyro_offset_counts_x,1093
# gyro_offset_counts_y,-320
# gyro_offset_counts_z,-19

t_s,accel_x,accel_y,accel_z,gyro_x_raw,gyro_y_raw,gyro_z_raw,gyro_x_corr,gyro_y_corr,gyro_z_corr
0.000009,2434,11013,11883,642,-117,-26,-451,203,-7
0.010067,2463,11031,11836,660,-86,-27,-433,234,-8
0.020064,2509,11061,11863,692,-28,-33,-401,292,-14
0.030067,2590,10979,11996,713,-24,-36,-380,296,-17
0.040065,2631,10994,12007,739,-37,-40,-354,283,-21
0.050066,2697,11130,11804,785,-93,-51,-308,227,-32
0.060064,2759,11224,11685,783,-111,-55,-310,209,-36
0.070066,2800,11286,11589,725,-112,-63,-368,208,-44
0.080084,2855,11353,11551,684,-110,-62,-409,210,-43
0.090091,2834,11348,11592,636,-125,-49,-457,195,-30
0.100071,2811,11325,11702,544,-210,-3,-549,110,16
0.110065,2833,11342,11671,507,-265,14,-586,55,33
0.120065,2860,11411,11455,456,-329,14,-637,-9,33
0.130064,2876,11464,11339,440,-324,-3,-653,-4,16
0.140065,2874,11500,11271,416,-266,-49,-677,54,-30
0.150064,2829,11528,11282,407,-233,-72,-686,87,-53
0.160065,2788,11509,11333,401,-208,-88,-692,112,-69
0.170064,2724,11496,11498,414,-195,-96,-679,125,-77
0.180064,2727,11465,11512,444,-213,-100,-649,107,-81
0.190064,2765,11609,11268,522,-243,-115,-571,77,-96
0.200063,2781,11655,11150,554,-226,-126,-539,94,-107
0.210064,2757,11696,11082,603,-158,-137,-490,162,-118
0.220066,2661,11705,11207,622,-139,-137,-471,181,-118
0.230064,2653,11717,11263,640,-139,-131,-453,181,-112
0.240065,2546,11773,11216,676,-163,-117,-417,157,-98
0.250064,2513,11814,11126,691,-171,-109,-402,149,-90
0.260064,2543,11976,10922,708,-165,-85,-385,155,-66
0.270063,2570,11962,10855,701,-147,-72,-392,173,-53
0.280065,2582,12037,10848,668,-122,-33,-425,198,-14
0.290065,2576,12098,10836,632,-120,-7,-461,200,12
0.300065,2586,12113,10853,584,-125,23,-509,195,42
0.310063,2670,12054,10920,467,-146,90,-626,174,109
0.320063,2692,11999,10969,411,-160,117,-682,160,136
0.330064,2709,11950,10997,324,-182,133,-769,138,152
0.340104,2752,11834,10985,299,-184,121,-794,136,140
0.350091,2755,11860,10971,289,-181,100,-804,139,119
0.360064,2728,11976,10906,271,-163,57,-822,157,76
0.370062,2720,11971,10915,255,-156,47,-838,164,66
0.380063,2798,11996,10931,231,-154,25,-862,166,44
0.390062,2836,12006,10926,214,-159,20,-879,161,39
0.400063,2871,12015,10903,183,-171,26,-910,149,45
0.410068,2869,12072,10842,166,-177,41,-927,143,60
0.420065,2840,12064,10846,149,-179,63,-944,141,82
0.430063,2868,11964,10891,137,-179,72,-956,141,91
0.440065,2878,11919,10895,145,-169,55,-948,151,74
0.450063,2889,11931,10869,182,-140,0,-911,180,19
0.460064,2901,11965,10843,196,-124,-24,-897,196,-5
0.470063,2899,11964,10823,227,-98,-61,-866,222,-42
0.480064,2908,12043,10777,241,-87,-72,-852,233,-53
0.490063,2891,12079,10771,251,-76,-78,-842,244,-59
0.500062,2852,12098,10768,264,-72,-80,-829,248,-61
0.510062,2834,12084,10760,281,-79,-85,-812,241,-66
0.520064,2822,12128,10703,324,-91,-104,-769,229,-85
0.530063,2808,12174,10690,343,-93,-109,-750,227,-90
0.540064,2770,12221,10647,357,-106,-102,-736,214,-83
0.550062,2722,12344,10567,339,-110,-88,-754,210,-69
0.560063,2709,12350,10565,310,-115,-69,-783,205,-50
0.570063,2706,12300,10604,252,-123,-38,-841,197,-19
0.580065,2704,12304,10585,236,-130,-34,-857,190,-15
0.590082,2712,12335,10514,213,-132,-38,-880,188,-19
0.600080,2777,12382,10418,207,-122,-45,-886,198,-26
0.610066,2786,12378,10423,200,-111,-52,-893,209,-33
0.620063,2769,12389,10482,198,-113,-53,-895,207,-34
0.630064,2774,12383,10486,199,-126,-45,-894,194,-26
0.640064,2878,12354,10445,212,-136,-30,-881,184,-11
0.650064,2914,12345,10444,221,-130,-29,-872,190,-10
0.660064,2920,12343,10458,243,-129,-39,-850,191,-20
0.670063,3003,12311,10531,254,-139,-45,-839,181,-26
0.680064,3036,12294,10562,267,-160,-51,-826,160,-32
0.690063,3076,12234,10601,297,-213,-69,-796,107,-50
0.700063,3057,12217,10604,316,-244,-81,-777,76,-62
0.710063,3023,12291,10529,354,-315,-101,-739,5,-82
0.720064,3019,12371,10427,371,-346,-106,-722,-26,-87
0.730063,3019,12450,10298,398,-361,-109,-695,-41,-90
0.740072,2973,12590,10071,406,-343,-109,-687,-23,-90
0.750063,2963,12629,10018,413,-316,-112,-680,4,-93
0.760064,2985,12655,9981,422,-253,-122,-671,67,-103
0.770063,2983,12648,9985,428,-219,-131,-665,101,-112
0.780064,2980,12653,9986,440,-168,-150,-653,152,-131
0.790063,3018,12659,9986,448,-150,-159,-645,170,-140
0.800064,3046,12657,9971,456,-138,-169,-637,182,-150
0.810064,3049,12675,9979,475,-124,-182,-618,196,-163
0.820063,3013,12676,10018,487,-123,-182,-606,197,-163
0.830062,2945,12737,9953,515,-133,-171,-578,187,-152
0.840064,2916,12784,9884,527,-136,-164,-566,184,-145
0.850063,2880,12836,9811,544,-128,-147,-549,192,-128
0.860064,2799,12933,9716,549,-123,-139,-544,197,-120
0.870062,2795,12976,9690,552,-125,-132,-541,195,-113
0.880064,2834,13056,9587,554,-125,-101,-539,195,-82
0.890063,2845,13090,9552,554,-126,-85,-539,194,-66
0.900064,2855,13122,9488,553,-131,-55,-540,189,-36
0.910062,2873,13158,9437,551,-135,-46,-542,185,-27
0.920063,2869,13185,9383,543,-132,-34,-550,188,-15
0.930063,2868,13225,9311,540,-122,-34,-553,198,-15
0.940063,2832,13281,9252,535,-111,-37,-558,209,-18
0.950063,2816,13371,9150,514,-106,-41,-579,214,-22
0.960064,2847,13409,9109,499,-110,-43,-594,210,-24
0.970064,2900,13464,9066,461,-125,-49,-632,195,-30
0.980064,2887,13488,9045,441,-143,-51,-652,177,-32
0.990064,2878,13522,9005,396,-189,-61,-697,131,-42
1.000063,2886,13540,8931,372,-204,-68,-721,116,-49
1.010063,2897,13535,8896,351,-211,-78,-742,109,-59
1.020063,2900,13560,8851,310,-207,-104,-783,113,-85
1.030064,2922,13586,8837,292,-197,-123,-801,123,-104
1.040064,2935,13599,8837,261,-160,-158,-832,160,-139
1.050063,2867,13641,8752,246,-141,-168,-847,179,-149
1.060063,2837,13706,8719,228,-124,-170,-865,196,-151
1.070063,2822,13748,8713,189,-88,-158,-904,232,-139
1.080063,2795,13717,8724,170,-70,-146,-923,250,-127
1.090063,2621,13765,8754,123,-64,-48,-970,256,-29
1.100064,2648,13730,8757,96,-90,-2,-997,230,17
1.110063,2834,13680,8738,61,-88,2,-1032,232,21
1.120064,2955,13580,8807,57,-53,-8,-1036,267,11
1.130064,2862,13621,8867,53,-37,-11,-1040,283,8
1.140063,2850,13659,8840,36,-58,0,-1057,262,19
1.150064,2892,13650,8790,27,-52,3,-1066,268,22
1.160064,2872,13593,8844,12,-13,9,-1081,307,28
1.170063,2865,13572,8913,6,-5,11,-1087,315,30
1.180063,2876,13532,8946,0,-9,13,-1093,311,32
1.190063,2915,13411,8907,-1,-8,11,-1094,312,30
1.200063,2924,13469,8918,0,-4,10,-1093,316,29
1.210063,2953,13502,9025,1,0,7,-1092,320,26
1.220062,2886,13431,9006,3,-6,5,-1090,314,24
1.230062,2899,13453,8927,7,-11,0,-1086,309,19
1.240064,2917,13523,8943,8,-5,-7,-1085,315,12
1.250064,2890,13564,8981,7,3,-19,-1086,323,0
1.260063,2752,13479,8975,4,-12,-19,-1089,308,0
1.270064,2779,13505,8975,0,-35,-17,-1093,285,2
1.280063,2853,13581,9004,-10,-81,-11,-1103,239,8
1.290071,2817,13568,8939,-18,-102,-7,-1111,218,12
1.300087,2788,13576,8872,-38,-132,5,-1131,188,24
1.310064,2892,13638,8847,-47,-134,7,-1140,186,26
1.320090,2905,13638,8845,-63,-108,12,-1156,212,31
1.330092,2813,13567,8822,-70,-94,17,-1163,226,36
1.340088,2813,13552,8835,-77,-81,24,-1170,239,43
1.350092,2904,13551,8904,-85,-50,34,-1178,270,53
1.360088,2904,13504,8913,-88,-32,36,-1181,288,55
1.370091,2911,13489,8924,-91,-10,40,-1184,310,59
1.380092,2944,13538,8936,-94,0,40,-1187,320,59
1.390087,2954,13555,8937,-105,22,33,-1198,342,52
1.400091,2863,13506,8917,-110,32,29,-1203,352,48
1.410125,2857,13501,8925,-116,38,25,-1209,358,44
1.420088,2882,13520,9004,-127,34,19,-1220,354,38
1.430104,2882,13509,9012,-134,23,17,-1227,343,36
1.440117,2886,13493,8993,-148,0,15,-1241,320,34
1.450092,2977,13509,8994,-156,-6,18,-1249,314,37
1.460092,2987,13501,9026,-162,-9,20,-1255,311,39
1.470091,2896,13440,9052,-171,-12,22,-1264,308,41
1.480090,2869,13434,9037,-173,-11,21,-1266,309,40
1.490097,2843,13440,9038,-178,-1,15,-1271,319,34
1.500092,2824,13442,9038,-183,4,14,-1276,324,33
1.510091,2826,13457,9022,-199,4,25,-1292,324,44
1.520086,2857,13539,8975,-212,3,35,-1305,323,54
1.530083,2860,13573,8947,-229,6,45,-1322,326,64
1.540085,2826,13563,8915,-261,20,60,-1354,340,79
1.550107,2829,13543,8932,-278,32,65,-1371,352,84
1.560087,2858,13520,9003,-309,63,73,-1402,383,92
1.570085,2837,13482,9068,-322,78,77,-1415,398,96
1.580085,2799,13437,9133,-343,85,92,-1436,405,111
1.590085,2777,13369,9231,-351,77,104,-1444,397,123
1.600084,2802,13348,9253,-358,72,114,-1451,392,133
1.610082,2846,13259,9292,-367,66,122,-1460,386,141
1.620086,2859,13235,9329,-370,69,121,-1463,389,140
1.630124,2863,13197,9403,-372,80,117,-1465,400,136
1.640105,2864,13181,9410,-372,83,117,-1465,403,136
1.650094,2888,13157,9408,-371,92,119,-1464,412,138
1.660093,2955,13059,9538,-370,95,120,-1463,415,139
1.670092,2981,12993,9639,-365,93,122,-1458,413,141
1.680091,2990,12864,9719,-346,74,115,-1439,394,134
1.690092,3006,12846,9722,-332,68,105,-1425,388,124
1.700091,3010,12857,9716,-305,80,83,-1398,400,102
1.710091,2992,12871,9680,-293,95,71,-1386,415,90
1.720084,2990,12881,9667,-282,114,61,-1375,434,80
1.730086,2955,12942,9665,-269,146,51,-1362,466,70
1.740107,2939,12949,9665,-266,158,48,-1359,478,67
1.750080,2891,12945,9707,-263,170,50,-1356,490,69
1.760086,2862,12935,9734,-262,172,50,-1355,492,69
1.770086,2854,12918,9782,-256,165,46,-1349,485,65
1.780086,2849,12828,9856,-251,166,42,-1344,486,61
1.790086,2847,12783,9903,-242,167,33,-1335,487,52
1.800086,2827,12709,10011,-217,153,10,-1310,473,29
1.810087,2826,12692,10038,-202,138,0,-1295,458,19
1.820088,2812,12710,10033,-171,122,-22,-1264,442,-3
1.830092,2787,12728,10011,-158,116,-24,-1251,436,-5
1.840088,2773,12748,10001,-137,99,-5,-1230,419,14
1.850092,2751,12767,9990,-129,89,5,-1222,409,24
1.860091,2742,12745,9990,-121,79,16,-1214,399,35
1.870090,2734,12733,10016,-105,61,28,-1198,381,47
1.880090,2717,12758,10008,-98,51,33,-1191,371,52
1.890091,2690,12748,10014,-86,39,34,-1179,359,53
1.900090,2689,12734,10017,-80,35,31,-1173,355,50
1.910090,2691,12739,10003,-69,23,21,-1162,343,40
1.920090,2714,12781,10030,-64,11,21,-1157,331,40
1.930088,2742,12782,10012,-59,3,23,-1152,323,42
1.940091,2750,12787,9954,-48,-4,30,-1141,316,49
1.950089,2767,12819,9930,-44,-5,34,-1137,315,53
1.960091,2773,12828,9911,-44,-10,47,-1137,310,66
1.970090,2755,12792,9923,-45,-13,52,-1138,307,71
1.980090,2775,12766,9925,-46,-15,53,-1139,305,72
1.990090,2808,12799,9935,-41,-13,48,-1134,307,67
2.000090,2778,12850,9914,-40,-17,51,-1133,303,70
2.010090,2796,12894,9844,-51,-37,86,-1144,283,105
2.020088,2846,12876,9824,-58,-37,99,-1151,283,118
2.030091,2894,12859,9839,-69,-4,113,-1162,316,132
2.040090,2872,12806,9897,-71,12,115,-1164,332,134
2.050091,2859,12790,9919,-75,22,116,-1168,342,135
2.060121,2891,12821,9920,-84,26,117,-1177,346,136
2.070092,2912,12836,9914,-91,26,115,-1184,346,134
2.080091,2958,12810,9910,-105,31,103,-1198,351,122
2.090086,2928,12825,9888,-111,33,97,-1204,353,116
2.100090,2887,12859,9886,-133,30,91,-1226,350,110
2.110090,2829,12849,9888,-146,25,86,-1239,345,105
2.120088,2820,12825,9886,-158,22,80,-1251,342,99
2.130090,2838,12793,9925,-186,20,69,-1279,340,88
2.140089,2855,12821,9936,-198,16,66,-1291,336,85
2.150090,2890,12834,9913,-223,8,67,-1316,328,86
2.160090,2915,12822,9887,-236,9,71,-1329,329,90
2.170090,2954,12787,9902,-248,20,74,-1341,340,93
2.180086,3015,12707,9999,-263,52,74,-1356,372,93
2.190091,3021,12657,10051,-266,66,74,-1359,386,93
2.200090,3026,12600,10122,-271,77,79,-1364,397,98
2.210090,3039,12595,10137,-271,79,82,-1364,399,101
2.220125,3032,12589,10157,-272,88,89,-1365,408,108
2.230090,2992,12575,10201,-272,86,94,-1365,406,113
2.240090,2987,12548,10251,-272,79,98,-1365,399,117
2.250091,2982,12479,10350,-270,52,102,-1363,372,121
2.260091,2964,12447,10375,-265,37,99,-1358,357,118
2.270091,2930,12376,10409,-253,20,88,-1346,340,107
2.280090,2902,12363,10414,-245,19,76,-1338,339,95
2.290090,2881,12353,10423,-228,17,46,-1321,337,65
2.300092,2889,12277,10451,-219,15,27,-1312,335,46
2.310087,2910,12269,10469,-210,11,7,-1303,331,26
2.320121,2920,12278,10498,-189,-6,-24,-1282,314,-5
2.330090,2896,12285,10499,-179,-17,-33,-1272,303,-14
2.340091,2833,12305,10483,-162,-35,-45,-1255,285,-26
2.350090,2814,12314,10477,-155,-37,-48,-1248,283,-29
2.360090,2820,12320,10469,-138,-23,-53,-1231,297,-34
2.370090,2821,12332,10471,-129,-13,-54,-1222,307,-35
2.380087,2816,12324,10485,-120,-6,-50,-1213,314,-31
2.390089,2802,12329,10528,-105,-6,-35,-1198,314,-16
2.400086,2798,12330,10516,-98,-9,-27,-1191,311,-8
2.410089,2803,12330,10503,-84,-9,-11,-1177,311,8
2.420087,2827,12344,10499,-80,-8,-5,-1173,312,14
2.430091,2825,12349,10507,-76,-5,0,-1169,315,19
2.440087,2815,12345,10497,-69,-3,10,-1162,317,29
2.450090,2805,12355,10486,-67,-5,15,-1160,315,34
2.460087,2824,12360,10466,-67,-14,27,-1160,306,46
2.470086,2847,12344,10474,-67,-18,29,-1160,302,48
2.480087,2872,12340,10465,-66,-23,30,-1159,297,49
2.490089,2904,12355,10472,-67,-27,30,-1160,293,49
2.500086,2921,12351,10464,-70,-32,26,-1163,288,45
2.510091,2923,12319,10473,-73,-39,26,-1166,281,45
2.520087,2925,12317,10497,-72,-32,27,-1165,288,46
2.530090,2815,12369,10528,-71,-34,39,-1164,286,58
2.540087,2772,12398,10494,-74,-52,46,-1167,268,65
2.550090,2786,12410,10437,-89,-69,50,-1182,251,69
2.560086,2793,12406,10401,-96,-65,49,-1189,255,68
2.570090,2828,12400,10404,-103,-56,46,-1196,264,65
2.580086,2879,12380,10427,-117,-30,38,-1210,290,57
2.590090,2902,12371,10434,-122,-20,39,-1215,300,58
2.600087,2901,12298,10524,-128,0,47,-1221,320,66
2.610091,2891,12237,10574,-127,7,45,-1220,327,64
2.620087,2886,12206,10618,-118,15,38,-1211,335,57
2.630087,2902,12187,10634,-112,17,32,-1205,337,51
2.640086,2911,12188,10637,-107,19,29,-1200,339,48
2.650088,2877,12199,10648,-100,15,25,-1193,335,44
2.660085,2862,12190,10643,-97,9,25,-1190,329,44
2.670089,2866,12179,10641,-89,8,19,-1182,328,38
2.680086,2859,12196,10615,-85,15,15,-1178,335,34
2.690089,2845,12204,10600,-83,21,13,-1176,341,32
2.700087,2894,12189,10604,-80,26,8,-1173,346,27
2.710089,2935,12157,10645,-75,32,5,-1168,352,24
2.720086,2950,12084,10746,-59,35,1,-1152,355,20
2.730089,2935,12078,10760,-49,29,-2,-1142,349,17
2.740104,2921,12083,10748,-31,13,-11,-1124,333,8
2.750087,2901,12090,10722,-22,13,-19,-1115,333,0
2.760086,2892,12091,10721,-13,15,-27,-1106,335,-8
2.770090,2857,12118,10774,5,11,-40,-1088,331,-21
2.780086,2835,12126,10773,13,0,-44,-1080,320,-25
2.790090,2825,12156,10688,27,-22,-55,-1066,298,-36
2.800086,2819,12179,10659,30,-26,-57,-1063,294,-38
2.810091,2799,12187,10653,34,-27,-56,-1059,293,-37
2.820086,2782,12189,10674,36,-31,-56,-1057,289,-37
2.830124,2771,12195,10670,38,-35,-56,-1055,285,-37
2.840087,2781,12245,10626,42,-46,-53,-1051,274,-34
2.850118,2787,12274,10602,42,-48,-50,-1051,272,-31
2.860137,2798,12302,10560,39,-45,-35,-1054,275,-16
2.870133,2801,12298,10556,37,-42,-26,-1056,278,-7
2.880835,2808,12285,10564,34,-35,-11,-1059,285,8
2.890116,2783,12255,10598,35,-30,-7,-1058,290,12
2.900095,2785,12233,10610,36,-25,-5,-1057,295,14
2.910108,2765,12207,10648,43,-24,-4,-1050,296,15
2.920128,2777,12228,10644,46,-31,-4,-1047,289,15
2.930145,2816,12237,10640,52,-42,4,-1041,278,23
2.940104,2912,12197,10692,57,-51,12,-1036,269,31
2.950114,2919,12166,10733,63,-67,18,-1030,253,37
2.960101,2926,12059,10806,87,-105,22,-1006,215,41
2.970094,2917,12023,10837,104,-119,17,-989,201,36
2.980114,2888,11989,10863,148,-136,-7,-945,184,12
2.990112,2892,11996,10857,172,-138,-22,-921,182,-3
3.000099,2897,12028,10836,222,-139,-48,-871,181,-29
3.010141,2848,12102,10767,244,-139,-50,-849,181,-31
3.020138,2840,12132,10747,264,-146,-48,-829,174,-29
3.030100,2832,12213,10613,298,-155,-44,-795,165,-25
3.040081,2813,12251,10566,309,-152,-45,-784,168,-26
3.050081,2780,12289,10538,328,-146,-50,-765,174,-31
3.060066,2706,12362,10455,334,-146,-52,-759,174,-33
3.070062,2690,12422,10406,337,-147,-53,-756,173,-34
3.080060,2681,12486,10340,339,-153,-49,-754,167,-30
3.090073,2715,12510,10293,336,-152,-47,-757,168,-28
3.100078,2693,12554,10227,328,-151,-47,-765,169,-28
3.110061,2699,12574,10177,322,-150,-51,-771,170,-32
3.120062,2686,12616,10142,302,-149,-57,-791,171,-38
3.130062,2678,12715,10037,286,-150,-58,-807,170,-39
3.140060,2722,12762,9982,270,-148,-59,-823,172,-40
3.150061,2798,12857,9862,230,-136,-57,-863,184,-38
3.160084,2829,12886,9815,206,-128,-53,-887,192,-34
3.170062,2893,12889,9811,160,-98,-46,-933,222,-27
3.180062,2901,12882,9817,135,-80,-41,-958,240,-22
3.190068,2922,12871,9832,94,-39,-29,-999,281,-10
3.200062,2971,12826,9865,75,-20,-22,-1018,300,-3
3.210062,2995,12808,9874,58,-2,-16,-1035,318,3
3.220064,3000,12813,9906,26,25,-9,-1067,345,10
3.230086,2999,12812,9917,10,31,-5,-1083,351,14
3.240084,3030,12816,9918,-24,32,5,-1117,352,24
3.250062,3045,12801,9924,-40,31,12,-1133,351,31
3.260062,3038,12772,9939,-70,26,28,-1163,346,47
3.270061,3030,12697,10007,-83,23,34,-1176,343,53
3.280062,3022,12669,10036,-92,22,32,-1185,342,51
3.290062,2992,12648,10047,-109,29,18,-1202,349,37
3.300062,2973,12638,10071,-116,34,10,-1209,354,29
3.310061,2950,12614,10101,-126,42,-2,-1219,362,17
3.320061,2898,12590,10168,-129,39,-6,-1222,359,13
3.330061,2877,12575,10215,-131,30,-7,-1224,350,12
3.340061,2823,12536,10284,-130,9,-3,-1223,329,16
3.350062,2785,12522,10289,-127,-1,0,-1220,319,19
3.360061,2743,12501,10299,-119,-21,0,-1212,299,19
3.370062,2741,12487,10304,-115,-28,-1,-1208,292,18
3.380061,2735,12482,10318,-106,-35,-8,-1199,285,11
3.390061,2714,12482,10325,-101,-36,-11,-1194,284,8
3.400061,2708,12477,10343,-94,-36,-13,-1187,284,6
3.410061,2661,12503,10338,-83,-44,-11,-1176,276,8
3.420064,2671,12490,10341,-77,-50,-8,-1170,270,11
3.430060,2686,12470,10359,-64,-55,-5,-1157,265,14
3.440061,2683,12472,10361,-60,-56,-3,-1153,264,16
3.450061,2703,12476,10334,-46,-50,-2,-1139,270,17
3.460061,2769,12469,10312,-40,-44,-4,-1133,276,15
3.470061,2796,12473,10315,-35,-36,-8,-1128,284,11
3.480061,2828,12486,10323,-26,-26,-7,-1119,294,12
3.490062,2824,12494,10307,-23,-23,-4,-1116,297,15
3.500061,2859,12481,10296,-20,-17,-3,-1113,303,16
3.510140,2873,12453,10315,-15,-12,-4,-1108,308,15
3.520062,2879,12432,10361,-12,-11,-5,-1105,309,14
3.530061,2911,12440,10398,-1,-30,-6,-1094,290,13
3.540061,2938,12447,10383,3,-42,-2,-1090,278,17
3.550062,2942,12474,10330,14,-57,8,-1079,263,27
3.560061,2951,12482,10279,17,-58,9,-1076,262,28
3.570061,2957,12475,10270,23,-45,4,-1070,275,23
3.580061,2900,12394,10378,30,-38,0,-1063,282,19
3.590061,2870,12357,10445,40,-39,-4,-1053,281,15
3.600061,2791,12340,10484,69,-66,-10,-1024,254,9
3.610061,2792,12355,10444,84,-78,-12,-1009,242,7
3.620063,2774,12430,10374,107,-83,-20,-986,237,-1
3.630061,2767,12461,10353,116,-84,-22,-977,236,-3
3.640061,2764,12475,10356,129,-100,-18,-964,220,1
3.650061,2792,12451,10371,137,-112,-15,-956,208,4
3.660061,2810,12440,10372,145,-123,-13,-948,197,6
3.670062,2822,12432,10366,166,-144,-11,-927,176,8
3.680061,2796,12454,10346,177,-153,-12,-916,167,7
3.690063,2755,12522,10267,193,-164,-19,-900,156,0
3.700061,2766,12566,10209,198,-166,-23,-895,154,-4
3.710061,2776,12606,10164,202,-159,-28,-891,161,-9
3.720061,2777,12671,10105,201,-154,-27,-892,166,-8
3.730061,2763,12714,10068,198,-151,-22,-895,169,-3
3.740073,2755,12792,9972,185,-149,-10,-908,171,9
3.750062,2780,12820,9914,172,-147,-8,-921,173,11
3.760064,2824,12833,9869,146,-118,-13,-947,202,6
3.770064,2886,12832,9871,132,-100,-17,-961,220,2
3.780061,2909,12823,9887,120,-88,-20,-973,232,-1
3.790061,2959,12808,9893,97,-78,-20,-996,242,-1
3.800061,2966,12818,9879,85,-75,-18,-1008,245,1
3.810062,2979,12815,9866,63,-61,-7,-1030,259,12
3.820063,2990,12799,9896,53,-50,-1,-1040,270,18
3.830061,3000,12790,9921,36,-34,7,-1057,286,26
3.840061,3034,12786,9929,30,-29,13,-1063,291,32
3.850061,3056,12783,9928,23,-21,20,-1070,299,39
3.860061,3068,12798,9926,10,-7,33,-1083,313,52
3.870060,3050,12795,9929,3,-2,38,-1090,318,57
3.880061,3024,12772,9950,-14,0,43,-1107,320,62
3.890061,3028,12751,9950,-22,0,43,-1115,320,62
3.900061,3013,12738,9955,-35,-6,38,-1128,314,57
3.910061,2995,12726,9974,-43,-8,33,-1136,312,52
3.920061,2976,12719,9990,-49,-11,26,-1142,309,45
3.930061,2925,12679,10044,-57,-12,13,-1150,308,32
3.940061,2919,12678,10054,-57,-14,7,-1150,306,26
3.950062,2906,12671,10060,-58,-17,1,-1151,303,20
3.960065,2892,12667,10071,-57,-17,3,-1150,303,22
3.970062,2875,12664,10093,-54,-24,11,-1147,296,30
3.980061,2839,12653,10156,-50,-31,14,-1143,289,33
3.990061,2839,12641,10149,-46,-39,16,-1139,281,35
4.000061,2875,12636,10124,-39,-42,16,-1132,278,35
4.010077,2886,12625,10129,-36,-39,11,-1129,281,30
4.020063,2872,12598,10135,-25,-32,0,-1118,288,19
4.030071,2861,12555,10184,-17,-32,-5,-1110,288,14
4.040074,2853,12546,10192,-8,-32,-11,-1101,288,8
4.050060,2859,12563,10166,8,-33,-22,-1085,287,-3
4.060061,2870,12563,10167,17,-29,-25,-1076,291,-6
4.070061,2888,12583,10191,35,-31,-25,-1058,289,-6
4.080060,2900,12602,10176,41,-41,-23,-1052,279,-4
4.090061,2938,12603,10148,51,-65,-15,-1042,255,4
4.100060,2990,12606,10155,57,-76,-11,-1036,244,8
4.110061,2994,12603,10163,63,-85,-8,-1030,235,11
4.120061,2965,12625,10133,74,-107,-5,-1019,213,14
4.130061,2957,12643,10110,79,-114,-7,-1014,206,12
4.140061,2935,12665,10055,87,-117,-13,-1006,203,6
4.150060,2912,12700,10041,88,-120,-13,-1005,200,6
4.160062,2924,12734,10030,85,-140,-6,-1008,180,13
4.170061,2960,12784,9952,81,-148,-4,-1012,172,15
4.180060,2979,12800,9899,75,-148,-5,-1018,172,14
4.190061,3018,12822,9830,58,-125,-16,-1035,195,3
4.200060,3028,12828,9829,49,-108,-23,-1044,212,-4
4.210060,3030,12824,9849,30,-78,-30,-1063,242,-11
4.220063,3022,12820,9850,21,-69,-29,-1072,251,-10
4.230060,3035,12840,9841,3,-53,-26,-1090,267,-7
4.240061,3034,12835,9850,-5,-43,-25,-1098,277,-6
4.250059,3023,12812,9865,-14,-35,-24,-1107,285,-5
4.260060,3022,12776,9928,-28,-26,-21,-1121,294,-2
4.270060,3019,12760,9974,-31,-23,-19,-1124,297,0
4.280060,3005,12740,9980,-34,-10,-19,-1127,310,0
4.290061,2954,12712,10001,-33,0,-19,-1126,320,0
4.300107,2941,12696,10031,-29,12,-19,-1122,332,0
4.310080,2914,12656,10116,-20,14,-13,-1113,334,6
4.320087,2919,12647,10119,-13,3,-5,-1106,323,14
4.330129,2943,12648,10099,0,-20,7,-1093,300,26
4.340106,2953,12658,10085,7,-30,10,-1086,290,29
4.350060,2944,12654,10085,20,-49,11,-1073,271,30
4.360059,2905,12630,10097,29,-55,9,-1064,265,28
4.370058,2870,12633,10105,38,-57,6,-1055,263,25
4.380073,2826,12630,10106,57,-56,-3,-1036,264,16
4.390061,2809,12652,10094,67,-56,-8,-1026,264,11
4.400061,2806,12679,10056,80,-55,-13,-1013,265,6
4.410060,2793,12701,10040,86,-58,-12,-1007,262,7
4.420070,2799,12718,10028,94,-69,-8,-999,251,11
4.430061,2821,12754,10006,95,-77,-6,-998,243,13
4.440061,2831,12783,9987,96,-85,-5,-997,235,14
4.450060,2853,12807,9927,92,-100,-8,-1001,220,11
4.460061,2861,12825,9894,90,-106,-8,-1003,214,11
4.470061,2898,12862,9834,80,-113,-10,-1013,207,9
4.480060,2927,12886,9812,72,-112,-11,-1021,208,8
4.490061,2947,12873,9814,56,-97,-16,-1037,223,3
4.500061,2975,12882,9804,49,-89,-20,-1044,231,-1
4.510061,3006,12888,9789,41,-80,-22,-1052,240,-3
4.520061,3069,12902,9770,24,-60,-23,-1069,260,-4
4.530059,3096,12892,9782,15,-48,-20,-1078,272,-1
4.540061,3105,12880,9800,1,-33,-14,-1092,287,5
4.550060,3096,12862,9820,-5,-33,-9,-1098,287,10
4.560061,3106,12862,9799,-12,-33,-2,-1105,287,17
4.570060,3123,12854,9784,-25,-25,12,-1118,295,31
4.580075,3111,12840,9812,-31,-17,17,-1124,303,36
4.590060,3085,12807,9881,-38,-11,23,-1131,309,42
4.600061,3051,12807,9894,-41,-15,23,-1134,305,42
4.610058,3034,12812,9892,-48,-36,28,-1141,284,47
4.620064,3034,12839,9860,-53,-44,32,-1146,276,51
4.630060,3009,12843,9860,-57,-48,35,-1150,272,54
4.640060,2975,12829,9850,-64,-48,39,-1157,272,58
4.650061,2966,12821,9855,-69,-46,39,-1162,274,58
4.660060,2954,12790,9879,-77,-43,32,-1170,277,51
4.670060,2940,12791,9894,-80,-44,27,-1173,276,46
4.680059,2945,12787,9892,-87,-48,16,-1180,272,35
4.690060,2944,12782,9889,-91,-44,12,-1184,276,31
4.700060,2933,12767,9900,-93,-36,8,-1186,284,27
4.710060,2929,12703,9956,-93,-15,1,-1186,305,20
4.720060,2935,12685,9974,-90,-4,-2,-1183,316,17
4.730060,2943,12653,10023,-80,16,-10,-1173,336,9
4.740070,2957,12659,10033,-74,21,-15,-1167,341,4
4.750059,2958,12672,10039,-63,22,-14,-1156,342,5
4.760060,2942,12681,10036,-56,18,-10,-1149,338,9
4.770060,2945,12697,10030,-52,11,-6,-1145,331,13
4.780060,2983,12662,10028,-45,0,-4,-1138,320,15
4.790060,2976,12653,10035,-40,0,-6,-1133,320,13
4.800073,2960,12655,10061,-34,-9,-12,-1127,311,7
4.810060,2942,12666,10077,-29,-21,-12,-1122,299,7
4.820062,2947,12674,10060,-26,-33,-11,-1119,287,8
4.830059,2947,12695,10044,-20,-50,-7,-1113,270,12
4.840060,2940,12711,10014,-18,-53,-6,-1111,267,13
4.850060,2947,12696,10011,-15,-48,-7,-1108,272,12
4.860060,2939,12696,10013,-12,-43,-10,-1105,277,9
4.870069,2938,12702,10015,-8,-43,-14,-1101,277,5
4.880078,2948,12699,10000,-6,-46,-14,-1099,274,5
4.890061,2973,12704,9987,-6,-47,-13,-1099,273,6
4.900060,2992,12682,9989,-4,-40,-7,-1097,280,12
4.910060,2978,12674,10011,-2,-37,-3,-1095,283,16
4.920059,2972,12654,10059,4,-37,4,-1089,283,23
4.930060,3001,12665,10055,8,-39,5,-1085,281,24
4.940060,3006,12669,10045,14,-40,4,-1079,280,23
4.950060,2988,12684,10022,16,-41,4,-1077,279,23
4.960060,2972,12688,10020,17,-41,3,-1076,279,22
4.970060,2969,12675,10024,20,-43,4,-1073,277,23
4.980059,2962,12671,10029,24,-44,3,-1069,276,22
4.990059,2959,12667,10022,27,-42,-4,-1066,278,15
5.000062,2950,12700,9989,28,-43,-8,-1065,277,11
5.010060,2941,12719,9972,27,-45,-10,-1066,275,9
5.020063,2945,12773,9917,22,-48,-8,-1071,272,11
5.030060,2961,12781,9915,19,-46,-6,-1074,274,13
5.040060,2946,12760,9936,14,-36,-5,-1079,284,14
5.050063,2931,12750,9949,11,-35,-5,-1082,285,14
5.060060,2912,12732,9968,8,-40,-5,-1085,280,14
5.070060,2914,12730,9974,8,-43,-6,-1085,277,13
5.080059,2913,12729,9979,8,-43,-8,-1085,277,11
5.090059,2911,12747,9958,7,-35,-13,-1086,285,6
5.100059,2913,12756,9948,5,-32,-12,-1088,288,7
5.110059,2911,12745,9954,2,-24,-7,-1091,296,12
5.120074,2906,12733,9972,1,-22,-3,-1092,298,16
5.130077,2915,12727,9991,4,-23,2,-1089,297,21
5.140063,2924,12703,10014,8,-25,4,-1085,295,23
5.150059,2924,12696,10015,12,-26,5,-1081,294,24
5.160059,2914,12697,10006,19,-30,6,-1074,290,25
5.170059,2923,12717,9987,22,-33,7,-1071,287,26
5.180060,2952,12727,9958,24,-29,2,-1069,291,21
5.190059,2956,12725,9955,25,-26,-1,-1068,294,18
5.200060,2948,12730,9967,27,-37,-1,-1066,283,18
5.210058,2938,12741,9965,27,-46,0,-1066,274,19
5.220063,2958,12743,9940,27,-55,2,-1066,265,21
5.230059,2956,12780,9881,24,-53,0,-1069,267,19
5.240060,2964,12794,9858,20,-47,0,-1073,273,19
5.250059,2965,12802,9855,10,-35,1,-1083,285,20
5.260059,2979,12791,9875,5,-30,0,-1088,290,19
5.270059,2991,12795,9889,1,-30,0,-1092,290,19
5.280059,3037,12801,9883,-10,-35,-1,-1103,285,18
5.290060,3053,12792,9870,-14,-37,-2,-1107,283,17
5.300060,3009,12797,9867,-25,-34,-3,-1118,286,16
5.310059,2994,12795,9870,-30,-30,-3,-1123,290,16
5.320059,2990,12802,9864,-39,-15,1,-1132,305,20
5.330059,2984,12806,9896,-40,-8,2,-1133,312,21
5.340058,3002,12794,9911,-42,-7,4,-1135,313,23
5.350115,3027,12793,9904,-49,-12,7,-1142,308,26
5.360083,3034,12792,9901,-54,-12,7,-1147,308,26
5.370058,3015,12752,9935,-60,-10,4,-1153,310,23
5.380057,3003,12726,9976,-62,-10,2,-1155,310,21
5.390060,2980,12711,10009,-62,-19,1,-1155,301,20
5.400058,2967,12696,10004,-60,-23,1,-1153,297,20
5.410060,2963,12700,10005,-58,-24,1,-1151,296,20
5.420063,2955,12697,10023,-54,-23,-1,-1147,297,18
5.430058,2959,12689,10039,-52,-27,-2,-1145,293,17
5.440060,2958,12677,10026,-48,-34,-5,-1141,286,14
5.450060,2953,12667,10036,-44,-37,-7,-1137,283,12
5.460060,2934,12668,10046,-35,-48,-7,-1128,272,12
5.470060,2888,12665,10049,-30,-54,-6,-1123,266,13
5.480059,2889,12673,10039,-26,-56,-6,-1119,264,13
5.490059,2892,12669,10028,-20,-52,-7,-1113,268,12
5.500059,2888,12677,10026,-17,-50,-6,-1110,270,13
5.510058,2871,12674,10031,-9,-44,-1,-1102,276,18
5.520060,2875,12654,10055,-4,-41,0,-1097,279,19
5.530059,2901,12635,10065,0,-37,-1,-1093,283,18
5.540059,2921,12637,10057,9,-29,-9,-1084,291,10
5.550059,2921,12652,10043,13,-27,-15,-1080,293,4
5.560059,2938,12707,10002,17,-23,-23,-1076,297,-4
5.570060,2943,12729,9994,17,-25,-24,-1076,295,-5
5.580059,2942,12751,9996,12,-30,-23,-1081,290,-4
5.590059,2963,12743,9980,9,-32,-20,-1084,288,-1
5.600059,2960,12729,9979,7,-34,-21,-1086,286,-2
5.610059,2966,12715,9992,5,-40,-24,-1088,280,-5
5.620061,2979,12717,9993,3,-45,-25,-1090,275,-6
5.630059,2981,12745,9992,3,-53,-23,-1090,267,-4
5.640059,2977,12754,9977,1,-52,-19,-1092,268,0
5.650059,2971,12765,9969,-2,-46,-11,-1095,274,8
5.660059,2967,12743,9963,-4,-40,-8,-1097,280,11
5.670060,2958,12734,9961,-5,-31,-5,-1098,289,14
5.680058,2956,12718,10007,-5,-15,-4,-1098,305,15
5.690058,2947,12721,10007,-5,-14,-1,-1098,306,18
5.700058,2942,12743,10000,-6,-18,5,-1099,302,24
5.710059,2935,12740,9992,-7,-22,11,-1100,298,30
5.720059,2926,12742,9975,-10,-30,17,-1103,290,36
5.730059,2943,12745,9971,-12,-32,17,-1105,288,36
5.740070,2949,12745,9961,-15,-33,14,-1108,287,33
5.750058,2960,12717,9978,-17,-29,3,-1110,291,22
5.760060,2955,12711,10014,-18,-30,0,-1111,290,19
5.770059,2940,12704,10037,-15,-43,2,-1108,277,21
5.780059,2921,12703,10050,-13,-51,5,-1106,269,24
5.790059,2950,12698,10031,-11,-55,7,-1104,265,26
5.800059,2978,12683,10005,-6,-55,5,-1099,265,24
5.810060,2970,12684,10014,-5,-52,2,-1098,268,21
5.820062,2963,12693,10013,-3,-50,-3,-1096,270,16
5.830062,2960,12689,10016,-3,-50,-4,-1096,270,15
5.840059,2951,12704,10010,-1,-52,-2,-1094,268,17
5.850059,2933,12739,9990,-2,-53,1,-1095,267,20
5.860059,2929,12750,9984,-4,-52,4,-1097,268,23
5.870058,2934,12751,10003,-4,-50,11,-1097,270,30
5.880059,2931,12731,10006,-5,-50,12,-1098,270,31
5.890059,2935,12740,9966,-6,-49,11,-1099,271,30
5.900059,2937,12736,9954,-8,-45,10,-1101,275,29
5.910058,2930,12743,9950,-12,-36,6,-1105,284,25
5.920058,2924,12754,9943,-14,-34,7,-1107,286,26
5.930058,2921,12741,9957,-15,-34,10,-1108,286,29
5.940059,2944,12731,9986,-17,-36,21,-1110,284,40
5.950059,2963,12729,9990,-19,-36,25,-1112,284,44
5.960058,2987,12702,9983,-20,-34,29,-1113,286,48
5.970059,2992,12708,9986,-20,-30,27,-1113,290,46
5.980058,2996,12702,9980,-22,-29,21,-1115,291,40
5.990059,2998,12697,9986,-22,-28,19,-1115,292,38
6.000058,3001,12695,9986,-23,-27,14,-1116,293,33
6.010058,3001,12663,10002,-20,-27,11,-1113,293,30
6.020059,2997,12662,10003,-18,-30,8,-1111,290,27
6.030057,3004,12673,10006,-15,-34,0,-1108,286,19
6.040058,3023,12676,10030,-13,-34,-4,-1106,286,15
6.050059,3026,12673,10030,-11,-35,-9,-1104,285,10
6.060058,3027,12668,10028,-7,-43,-14,-1100,277,5
6.070058,3006,12679,10018,-5,-46,-13,-1098,274,6
6.080058,2992,12688,10009,-1,-48,-7,-1094,272,12
6.090059,2982,12696,10004,0,-47,-5,-1093,273,14
6.100059,2966,12697,9991,0,-42,-5,-1093,278,14
6.110059,2964,12700,9981,0,-39,-8,-1093,281,11
6.120059,2965,12701,9968,0,-35,-11,-1093,285,8
6.130058,2990,12677,10006,0,-27,-14,-1093,293,5
6.140058,2973,12670,10017,0,-25,-15,-1093,295,4
6.150058,2942,12672,10033,4,-29,-8,-1089,291,11
6.160059,2938,12676,10024,6,-36,-4,-1087,284,15
6.170058,2931,12671,10006,9,-43,0,-1084,277,19
6.180058,2949,12697,9993,9,-41,0,-1084,279,19
6.190058,2950,12706,9992,11,-38,-2,-1082,282,17
6.200059,2931,12727,9991,9,-37,-3,-1084,283,16
6.210058,2924,12729,9983,8,-37,-3,-1085,283,16
6.220060,2928,12743,9966,6,-29,-2,-1087,291,17
6.230058,2935,12733,9974,3,-26,-2,-1090,294,17
6.240092,2948,12731,9973,0,-28,-6,-1093,292,13
6.250093,2957,12739,9982,-2,-31,-7,-1095,289,12
6.260080,2962,12732,9983,-3,-36,-8,-1096,284,11
6.270082,2971,12725,9969,-6,-40,-6,-1099,280,13
6.280104,2966,12728,9972,-7,-37,-4,-1100,283,15
6.290099,2962,12724,9986,-7,-32,2,-1100,288,21
6.300097,2957,12726,10003,-7,-32,7,-1100,288,26
6.310094,2971,12722,9992,-9,-33,11,-1102,287,30
6.320090,2978,12741,9966,-11,-34,16,-1104,286,35
6.330083,2975,12745,9952,-13,-31,16,-1106,289,35
6.340154,2966,12735,9951,-18,-25,12,-1111,295,31
6.350105,2952,12730,9963,-20,-22,11,-1113,298,30
6.360082,2931,12719,9967,-23,-19,9,-1116,301,28
6.370100,2934,12711,9978,-22,-19,7,-1115,301,26
6.380059,2940,12715,9988,-23,-18,4,-1116,302,23
6.390058,2959,12709,10017,-24,-22,3,-1117,298,22
6.400056,2951,12696,10014,-24,-25,1,-1117,295,20
6.410059,2940,12686,10015,-24,-32,-2,-1117,288,17
6.420059,2931,12693,10000,-23,-32,-6,-1116,288,13
6.430076,2935,12713,9987,-23,-23,-6,-1116,297,13
6.440109,2929,12721,9985,-24,-18,-4,-1117,302,15
6.450059,2935,12695,10008,-25,-14,-3,-1118,306,16
6.460059,2971,12670,10045,-22,-19,1,-1115,301,20
6.470059,2981,12657,10039,-19,-23,2,-1112,297,21
6.480058,2980,12648,10031,-14,-22,-2,-1107,298,17
6.490059,2973,12672,10007,-11,-19,-5,-1104,301,14
6.500058,2971,12676,10015,-9,-15,-8,-1102,305,11
6.510058,2948,12681,10050,-6,-17,-6,-1099,303,13
6.520058,2947,12691,10063,-6,-24,-1,-1099,296,18
6.530058,2950,12716,10043,-7,-49,8,-1100,271,27
6.540058,2958,12713,10015,-7,-57,11,-1100,263,30
6.550058,2966,12717,9997,-12,-59,7,-1105,261,26
6.560058,2959,12694,9999,-13,-55,4,-1106,265,23
6.570058,2946,12679,10013,-14,-50,0,-1107,270,19
6.580058,2962,12674,10038,-9,-42,-3,-1102,278,16
6.590058,2979,12680,10034,-8,-38,-1,-1101,282,18
6.600058,2985,12690,10016,-6,-35,5,-1099,285,24
6.610058,2979,12694,9992,-5,-32,9,-1098,288,28
6.620058,2969,12700,9990,-8,-29,11,-1101,291,30
6.630059,2964,12698,9989,-9,-30,11,-1102,290,30
6.640057,2968,12697,9992,-10,-29,11,-1103,291,30
6.650057,2954,12712,9997,-12,-26,12,-1105,294,31
6.660058,2954,12708,10000,-11,-25,13,-1104,295,32
6.670068,2963,12692,9994,-12,-22,12,-1105,298,31
6.680059,2957,12684,9988,-12,-16,7,-1105,304,26
6.690058,2958,12684,10006,-14,-4,-5,-1107,316,14
6.700057,2949,12673,10008,-17,-6,-14,-1110,314,5
6.710057,2957,12689,9996,-19,-9,-20,-1112,311,-1
6.720058,2957,12685,10010,-23,-10,-30,-1116,310,-11
6.730058,2969,12682,10032,-24,-10,-31,-1117,310,-12
6.740093,2961,12663,10050,-24,-9,-26,-1117,311,-7
6.750073,2953,12664,10061,-22,-7,-23,-1115,313,-4
6.760058,2954,12639,10078,-18,-5,-21,-1111,315,-2
6.770057,2934,12623,10134,-10,-3,-14,-1103,317,5
6.780057,2928,12615,10154,-4,-7,-8,-1097,313,11
6.790058,2942,12594,10128,10,-23,-2,-1083,297,17
6.800057,2958,12604,10106,17,-29,0,-1076,291,19
6.810059,2964,12627,10088,25,-37,2,-1068,283,21
6.820058,2934,12642,10066,28,-43,4,-1065,277,23
6.830057,2910,12664,10069,30,-49,5,-1063,271,24
6.840057,2905,12706,10024,29,-58,4,-1064,262,23
6.850058,2895,12724,9999,26,-61,1,-1067,259,20
6.860057,2904,12742,9964,18,-58,0,-1075,262,19
6.870058,2911,12748,9960,15,-56,1,-1078,264,20
6.880057,2912,12741,9962,8,-53,7,-1085,267,26
6.890058,2929,12720,9982,5,-52,9,-1088,268,28
6.900057,2931,12712,9991,5,-51,12,-1088,269,31
6.910058,2933,12694,10007,4,-55,16,-1089,265,35
6.920057,2939,12682,9995,5,-57,15,-1088,263,34
6.930057,2975,12701,9974,3,-53,13,-1090,267,32
6.940057,2986,12710,9957,1,-48,11,-1092,272,30
6.950057,2988,12718,9959,-4,-34,8,-1097,286,27
6.960057,2992,12712,9964,-8,-28,7,-1101,292,26
6.970057,3001,12714,9966,-11,-23,5,-1104,297,24
6.980057,3014,12690,10000,-15,-22,2,-1108,298,21
6.990058,3025,12695,10007,-17,-25,2,-1110,295,21
7.000057,3020,12693,10008,-21,-30,1,-1114,290,20
7.010057,3015,12700,9997,-21,-29,0,-1114,291,19
7.020057,3013,12694,9980,-21,-26,-1,-1114,294,18
7.030057,3001,12678,10010,-22,-18,-7,-1115,302,12
7.040056,2991,12668,10021,-21,-19,-8,-1114,301,11
7.050058,2976,12664,10050,-20,-36,-5,-1113,284,14
7.060064,2954,12674,10036,-20,-48,-3,-1113,272,16
7.070058,2936,12680,10013,-22,-62,-4,-1115,258,15
7.080057,2950,12677,10023,-22,-58,-5,-1115,262,14
7.090057,2933,12674,10023,-22,-52,-8,-1115,268,11
7.100057,2919,12661,10035,-18,-47,-8,-1111,273,11
7.110058,2931,12656,10033,-16,-46,-6,-1109,274,13
7.120056,2935,12679,10020,-13,-43,-2,-1106,277,17
7.130057,2934,12675,10022,-12,-44,-2,-1105,276,17
7.140057,2930,12681,10020,-13,-46,-3,-1106,274,16
7.150058,2930,12688,10031,-13,-47,-4,-1106,273,15
7.160057,2925,12686,10029,-13,-48,-2,-1106,272,17
7.170058,2921,12683,10042,-10,-46,-1,-1103,274,18
7.180057,2938,12679,10050,-8,-40,-3,-1101,280,16
7.190058,2943,12680,10067,-3,-30,-3,-1096,290,16
7.200056,2961,12693,10073,0,-30,-1,-1093,290,18
7.210058,2970,12699,10069,2,-33,1,-1091,287,20
7.220058,2987,12697,10066,2,-36,3,-1091,284,22
7.230056,2997,12682,10075,3,-40,3,-1090,280,22
7.240057,3009,12660,10077,4,-43,0,-1089,277,19
7.250057,2998,12658,10076,7,-43,-4,-1086,277,15
7.260056,2986,12668,10063,10,-49,-10,-1083,271,9
7.270057,2997,12699,10026,11,-51,-9,-1082,269,10
7.280056,2991,12690,10025,11,-52,-8,-1082,268,11
7.290057,2987,12707,10033,11,-55,-6,-1082,265,13
7.300056,2989,12717,10026,9,-58,-5,-1084,262,14
7.310057,2985,12696,10016,6,-55,-4,-1087,265,15
7.320056,2983,12688,10027,6,-52,-4,-1087,268,15
7.330081,2977,12696,10024,4,-49,-3,-1089,271,16
7.340070,2970,12725,9996,2,-47,-2,-1091,273,17
7.350059,2977,12722,9994,1,-44,0,-1092,276,19
7.360057,2934,12713,10011,0,-37,2,-1093,283,21
7.370058,2934,12712,10018,0,-36,3,-1093,284,22
7.380056,2939,12709,10028,0,-36,6,-1093,284,25
7.390057,2951,12714,10011,-1,-35,6,-1094,285,25
7.400056,2961,12719,9999,-1,-26,4,-1094,294,23
7.410057,2973,12719,9994,-2,-19,2,-1095,301,21
7.420057,2975,12727,9993,-5,-14,0,-1098,306,19
7.430057,2981,12709,10008,-6,-6,-7,-1099,314,12
7.440056,2989,12702,10029,-8,-7,-10,-1101,313,9
7.450057,2983,12685,10050,-10,-14,-11,-1103,306,8
7.460057,2983,12681,10066,-10,-21,-11,-1103,299,8
7.470057,2981,12671,10073,-8,-40,-6,-1101,280,13
7.480057,2982,12684,10057,-7,-48,-3,-1100,272,16
7.490058,2972,12678,10054,-5,-53,0,-1098,267,19
7.500057,2951,12680,10029,-4,-61,5,-1097,259,24
7.510057,2955,12682,10007,-4,-62,7,-1097,258,26
7.520057,2964,12681,9994,-4,-53,10,-1097,267,29
7.530058,2961,12687,9999,-4,-47,12,-1097,273,31
7.540057,2960,12683,9990,-4,-40,11,-1097,280,30
7.550058,2982,12702,9988,-9,-24,8,-1102,296,27
7.560057,2980,12708,9989,-11,-18,7,-1104,302,26
7.570057,2978,12712,10003,-17,-19,8,-1110,301,27
7.580057,2985,12701,10014,-19,-24,10,-1112,296,29
7.590057,2987,12679,10015,-20,-34,9,-1113,286,28
7.600057,2990,12674,10014,-22,-38,9,-1115,282,28
7.610057,2990,12668,10008,-24,-40,10,-1117,280,29
7.620056,2998,12677,10004,-27,-40,5,-1120,280,24
7.630057,3000,12672,10020,-28,-39,0,-1121,281,19
7.640057,3012,12664,10045,-26,-31,-9,-1119,289,10
7.650058,3020,12665,10057,-25,-28,-12,-1118,292,7
7.660058,3013,12673,10059,-22,-29,-14,-1115,291,5
7.670057,2991,12674,10057,-22,-31,-11,-1115,289,8
7.680057,2978,12671,10060,-20,-31,-8,-1113,289,11
7.690058,2955,12672,10068,-15,-27,-3,-1108,293,16
7.700058,2959,12671,10057,-13,-28,-1,-1106,292,18
7.710057,2967,12653,10057,-9,-28,0,-1102,292,19
7.720057,2977,12655,10057,-5,-30,-1,-1098,290,18
7.730057,2983,12651,10078,-1,-37,-1,-1094,283,18
7.740063,2985,12633,10084,2,-42,-2,-1091,278,17
7.750057,2969,12640,10077,6,-43,-4,-1087,277,15
7.760056,2951,12652,10046,10,-41,-7,-1083,279,12
7.770057,2928,12667,10029,12,-37,-9,-1081,283,10
7.780057,2916,12693,10017,13,-30,-10,-1080,290,9
7.790057,2945,12694,10017,12,-29,-9,-1081,291,10
7.800057,2961,12678,10020,13,-29,-8,-1080,291,11
7.810058,2980,12660,10039,16,-32,-10,-1077,288,9
7.820061,2989,12659,10044,19,-36,-12,-1074,284,7
7.830056,2984,12669,10027,21,-44,-16,-1072,276,3
7.840057,2960,12679,10024,23,-45,-16,-1070,275,3
7.850057,2944,12688,10024,23,-41,-19,-1070,279,0
7.860057,2945,12694,9998,23,-40,-21,-1070,280,-2
7.870057,2958,12657,10018,22,-39,-25,-1071,281,-6
7.880056,2996,12637,10062,29,-43,-37,-1064,277,-18
7.890057,2979,12646,10051,32,-47,-46,-1061,273,-27
7.900056,2955,12654,10058,39,-53,-53,-1054,267,-34
7.910057,2901,12767,9986,38,-59,-46,-1055,261,-27
7.920057,2763,12932,9948,4,-89,64,-1089,231,83
7.930057,2923,12832,9810,-15,-103,90,-1108,217,109
7.940057,3010,12808,9795,-24,-78,97,-1117,242,116
7.950057,2938,12769,9945,-25,-30,79,-1118,290,98
7.960057,2916,12764,9965,-27,-35,70,-1120,285,89
7.970057,2915,12785,9938,-20,-47,69,-1113,273,88
7.980057,2880,12716,9829,33,-60,59,-1060,260,78
7.990057,2902,12718,9715,133,-78,31,-960,242,50
8.000057,2903,12932,9460,401,-103,-21,-692,217,-2
8.010056,2942,13029,9444,544,-122,-31,-549,198,-12
8.020056,3053,12919,9404,806,-178,-55,-287,142,-36
8.030055,3119,12942,9476,924,-211,-63,-169,109,-44
8.040133,3149,12980,9505,1128,-302,-90,35,18,-71
8.050085,3162,13019,9327,1219,-327,-103,126,-7,-84
8.060085,3237,13106,9230,1341,-295,-124,248,25,-105
8.070081,3334,13179,9240,1380,-256,-132,287,64,-113
8.080084,3308,13059,9342,1385,-240,-141,292,80,-122
8.090084,3302,12783,9441,1375,-274,-220,282,46,-201
8.100084,3313,13096,9631,1359,-290,-196,266,30,-177
8.110084,3424,13499,9794,1014,-378,10,-79,-58,29
8.120084,3154,13376,10107,806,-484,115,-287,-164,134
8.130085,3160,13268,10064,618,-566,212,-475,-246,231
8.140113,3245,12935,9696,437,-604,237,-656,-284,256
8.150084,3189,13115,9474,403,-574,187,-690,-254,206
8.160084,2880,13298,9253,352,-485,136,-741,-165,155
8.170084,2835,13183,9190,342,-453,111,-751,-133,130
8.180084,2835,13031,9084,465,-402,-22,-628,-82,-3
8.190084,2907,13165,8640,568,-347,-111,-525,-27,-92
8.200084,2931,13302,8466,667,-265,-184,-426,55,-165
8.210084,2896,13439,8378,846,-102,-290,-247,218,-271
8.220081,2883,13426,8351,939,-45,-315,-154,275,-296
8.230081,2737,13469,8442,1117,12,-341,24,332,-322
8.240085,2775,13474,8465,1194,-3,-348,101,317,-329
8.250084,2802,13495,8438,1329,-30,-344,236,290,-325
8.260085,2859,13552,8354,1390,-49,-355,297,271,-336
8.270084,2923,13611,8319,1439,-58,-368,346,262,-349
8.280084,2899,13814,8304,1481,-62,-370,388,258,-351
8.290083,2795,13876,8248,1489,-86,-351,396,234,-332
8.300080,2830,14195,8127,1486,-179,-307,393,141,-288
8.310107,2947,14335,8016,1456,-219,-274,363,101,-255
8.320085,2993,14390,7936,1395,-245,-228,302,75,-209
8.330084,2951,14308,7870,1378,-264,-219,285,56,-200
8.340084,2915,14359,7796,1364,-292,-207,271,28,-188
8.350084,3004,14575,7649,1320,-353,-159,227,-33,-140
8.360083,3042,14642,7573,1295,-380,-133,202,-60,-114
8.370083,3077,14662,7511,1263,-431,-77,170,-111,-58
8.380083,3095,14522,7316,1257,-466,-64,164,-146,-45
8.390083,3096,14440,7198,1256,-497,-64,163,-177,-45
8.400096,3089,14315,6925,1275,-540,-105,182,-220,-86
8.410084,3054,14233,6772,1290,-557,-139,197,-237,-120
8.420083,3053,14207,6439,1327,-577,-224,234,-257,-205
8.430081,3035,14197,6317,1348,-584,-270,255,-264,-251
8.440084,3054,14213,6213,1416,-565,-377,323,-245,-358
8.450079,2990,14357,6090,1459,-547,-436,366,-227,-417
8.460078,2925,14508,6069,1498,-551,-485,405,-231,-466
8.470078,2963,14865,5904,1533,-586,-532,440,-266,-513
8.480078,2954,14984,5819,1536,-599,-539,443,-279,-520
8.490077,2910,15193,5623,1532,-616,-540,439,-296,-521
8.500078,2896,15228,5539,1541,-612,-541,448,-292,-522
8.510077,2848,15242,5456,1572,-590,-527,479,-270,-508
8.520077,2746,15201,5198,1581,-585,-517,488,-265,-498
8.530078,2781,15243,5015,1574,-567,-503,481,-247,-484
8.540078,2794,15543,4868,1509,-496,-469,416,-176,-450
8.550083,2801,15665,4829,1460,-463,-433,367,-143,-414
8.560083,2787,15681,4944,1355,-424,-334,262,-104,-315
8.570084,2752,15615,4983,1310,-428,-277,217,-108,-258
8.580084,2725,15584,4910,1252,-515,-200,159,-195,-181
8.590083,2806,15595,4498,1234,-554,-187,141,-234,-168
8.600081,2817,15657,4253,1215,-569,-181,122,-249,-162
8.610083,2808,15858,3839,1176,-561,-182,83,-241,-163
8.620081,2773,15930,3694,1149,-557,-180,56,-237,-161
8.630084,2668,15965,3630,1091,-571,-160,-2,-251,-141
8.640085,2546,16057,3478,1059,-590,-145,-34,-270,-126
8.650084,2554,16059,3388,1029,-608,-132,-64,-288,-113
8.660084,2620,16072,3193,978,-601,-127,-115,-281,-108
8.670084,2640,16045,3116,956,-576,-134,-137,-256,-115
8.680084,2626,16041,3088,929,-497,-155,-164,-177,-136
8.690085,2602,16071,3063,920,-461,-157,-173,-141,-138
8.700084,2589,16067,3020,901,-400,-144,-192,-80,-125
8.710084,2606,16044,2887,893,-366,-150,-200,-46,-131
8.720084,2609,16047,2849,886,-326,-159,-207,-6,-140
8.730084,2597,16054,2782,879,-253,-174,-214,67,-155
8.740094,2619,16060,2727,874,-226,-180,-219,94,-161
8.750080,2662,16109,2569,862,-166,-192,-231,154,-173
8.760084,2657,16130,2500,858,-132,-197,-235,188,-178
8.770083,2645,16143,2450,842,-74,-195,-251,246,-176
8.780084,2616,16144,2457,835,-58,-181,-258,262,-162
8.790084,2600,16139,2467,823,-58,-160,-270,262,-141
8.800084,2603,16100,2470,802,-96,-123,-291,224,-104
8.810086,2596,16100,2437,793,-123,-110,-300,197,-91
8.820082,2668,16066,2330,780,-180,-120,-313,140,-101
8.830081,2695,16061,2281,778,-192,-136,-315,128,-117
8.840080,2653,16062,2266,782,-201,-156,-311,119,-137
8.850085,2511,16103,2230,783,-221,-159,-310,99,-140
8.860084,2457,16121,2202,783,-247,-152,-310,73,-133
8.870083,2386,16148,2068,786,-295,-123,-307,25,-104
8.880084,2387,16156,1982,785,-310,-106,-308,10,-87
8.890081,2345,16156,1939,788,-335,-89,-305,-15,-70
8.900084,2378,16066,1889,794,-344,-95,-299,-24,-76
8.910084,2368,16060,1892,804,-353,-104,-289,-33,-85
8.920084,2257,16040,1853,828,-393,-107,-265,-73,-88
8.930083,2310,16047,1757,844,-411,-106,-249,-91,-87
8.940084,2439,16048,1495,884,-375,-121,-209,-55,-102
8.950084,2469,16059,1451,906,-338,-132,-187,-18,-113
8.960083,2470,16128,1399,936,-294,-121,-157,26,-102
8.970084,2384,16158,1246,945,-297,-124,-148,23,-105
8.980083,2353,16195,1145,952,-305,-135,-141,15,-116
8.990083,2370,16236,895,951,-316,-175,-142,4,-156
9.000083,2409,16275,761,949,-303,-201,-144,17,-182
9.010095,2481,16271,592,943,-235,-254,-150,85,-235
9.020083,2468,16265,562,941,-189,-281,-152,131,-262
9.030094,2390,16259,582,939,-140,-322,-154,180,-303
9.040100,2230,16323,624,938,-148,-328,-155,172,-309
9.050082,2156,16360,591,933,-171,-321,-160,149,-302
9.060074,2066,16459,414,915,-258,-256,-178,62,-237
9.070078,2055,16469,300,900,-303,-207,-193,17,-188
9.080078,2091,16459,194,869,-353,-146,-224,-33,-127
9.090078,2213,16465,-9,858,-338,-128,-235,-18,-109
9.100077,2198,16481,-100,851,-308,-115,-242,12,-96
9.110077,2103,16508,-157,832,-254,-85,-261,66,-66
9.120077,2010,16496,-141,818,-254,-71,-275,66,-52
9.130077,2012,16423,-148,795,-299,-33,-298,21,-14
9.140077,2064,16392,-177,792,-315,-16,-301,5,3
9.150193,2120,16366,-262,791,-319,-24,-302,1,-5
9.160083,2175,16299,-426,790,-316,-54,-303,4,-35
9.170084,2252,16276,-497,789,-304,-98,-304,16,-79
9.180084,2256,16296,-549,789,-257,-169,-304,63,-150
9.190084,2131,16218,-557,791,-253,-177,-302,67,-158
9.200084,1877,15888,-676,827,-337,-162,-266,-17,-143
9.210083,1876,15745,-835,865,-404,-159,-228,-84,-140
9.220081,1930,15740,-988,956,-475,-170,-137,-155,-151
9.230081,2065,15766,-1318,995,-459,-178,-98,-139,-159
9.240097,1980,15820,-1446,1037,-438,-195,-56,-118,-176
9.250257,1875,15890,-1625,1122,-371,-221,29,-51,-202
9.260071,1965,15926,-1625,1162,-337,-231,69,-17,-212
9.270071,1658,15715,-1794,1256,-290,-248,163,30,-229
9.280071,1669,15830,-1813,1307,-285,-240,214,35,-221
9.290073,1660,15752,-1924,1379,-306,-223,286,14,-204
9.300071,2533,17508,-2845,1117,-223,-222,24,97,-203
9.310071,2185,17821,-2889,883,-40,-139,-210,280,-120
9.320073,1920,18114,-2467,547,287,9,-546,607,28
9.330070,1834,18387,-2113,448,387,110,-645,707,129
9.340072,1576,18383,-2095,280,435,412,-813,755,431
9.350072,1611,18010,-1913,196,416,589,-897,736,608
9.360083,1797,17578,-1978,178,377,705,-915,697,724
9.370083,2104,16542,-2042,142,381,799,-951,701,818
9.380164,2171,16133,-1996,136,419,748,-957,739,767
9.390079,2285,16241,-1902,129,478,526,-964,798,545
9.400082,2145,16325,-1808,116,467,475,-977,787,494
9.410083,1985,16319,-1715,61,282,442,-1032,602,461
9.420080,2113,16201,-1815,32,189,416,-1061,509,435
9.430080,2233,16044,-1894,8,137,364,-1085,457,383
9.440085,2480,15944,-1760,-7,112,213,-1100,432,232
9.450083,2429,16056,-1774,-15,88,164,-1108,408,183
9.460083,2280,16124,-1805,-82,7,126,-1175,327,145
9.470084,2343,16061,-1801,-100,-26,104,-1193,294,123
9.480083,2465,16032,-1733,-69,-65,17,-1162,255,36
9.490084,2491,16225,-1795,-51,-66,-20,-1144,254,-1
9.500082,2541,16404,-1810,-40,-64,-40,-1133,256,-21
9.510083,2408,16453,-1791,-39,-78,-35,-1132,242,-16
9.520084,2351,16430,-1789,-37,-81,-27,-1130,239,-8
9.530083,2342,16356,-1781,-30,-80,-12,-1123,240,7
9.540083,2385,16309,-1798,-24,-74,-6,-1117,246,13
9.550083,2408,16268,-1820,-11,-37,-6,-1104,283,13
9.560102,2382,16257,-1788,-3,-20,-8,-1096,300,11
9.570142,2374,16272,-1786,0,-12,-5,-1093,308,14
9.580155,2365,16238,-1789,4,-8,-1,-1089,312,18
9.590110,2369,16249,-1774,5,-3,0,-1088,317,19
9.600097,2360,16258,-1778,7,0,2,-1086,320,21
9.610086,2336,16255,-1785,8,1,3,-1085,321,22
9.620128,2348,16242,-1785,9,1,0,-1084,321,19
9.630102,2413,16247,-1751,5,-5,-1,-1088,315,18
9.640102,2423,16270,-1763,1,-14,-3,-1092,306,16
9.650097,2368,16250,-1772,-5,-29,7,-1098,291,26
9.660079,2339,16271,-1816,-4,-34,8,-1097,286,27
9.670075,2340,16290,-1817,-1,-30,23,-1094,290,42
9.680078,2297,16276,-1807,0,-30,32,-1093,290,51
9.690083,2320,16273,-1811,2,-32,37,-1091,288,56
9.700144,2401,16257,-1834,5,-23,41,-1088,297,60
9.710115,2463,16240,-1841,6,-21,41,-1087,299,60
9.720079,2505,16224,-1854,9,-5,35,-1084,315,54
9.730111,2493,16226,-1834,11,0,28,-1082,320,47
9.740080,2456,16235,-1800,10,-2,22,-1083,318,41
9.750055,2463,16233,-1809,4,-17,17,-1089,303,36
9.760053,2426,16243,-1825,3,-21,16,-1090,299,35
9.770056,2376,16262,-1817,1,-25,23,-1092,295,42
9.780057,2380,16271,-1833,-2,-32,27,-1095,288,46
9.790056,2365,16256,-1813,-6,-38,35,-1099,282,54
9.800054,2373,16261,-1804,-6,-41,39,-1099,279,58
9.810055,2384,16249,-1793,-8,-46,44,-1101,274,63
9.820056,2421,16238,-1824,-4,-46,49,-1097,274,68
9.830053,2418,16229,-1805,-2,-45,51,-1095,275,70
9.840053,2416,16246,-1803,-1,-50,55,-1094,270,74
9.850055,2435,16233,-1798,-2,-52,57,-1095,268,76
9.860055,2431,16238,-1811,-1,-47,62,-1094,273,81
9.870055,2448,16235,-1832,0,-43,63,-1093,277,82
9.880066,2450,16231,-1818,2,-38,65,-1091,282,84
9.890055,2450,16228,-1789,4,-36,68,-1089,284,87
9.900056,2454,16239,-1800,5,-38,70,-1088,282,89
9.910054,2435,16235,-1826,4,-35,77,-1089,285,96
9.920055,2430,16258,-1849,6,-26,81,-1087,294,100
9.930055,2393,16274,-1864,11,-3,101,-1082,317,120
9.940055,2452,16307,-1769,12,-2,116,-1081,318,135
9.950070,2462,16276,-1734,18,-4,125,-1075,316,144
9.960095,2506,16185,-1781,38,10,127,-1055,330,146
9.970059,2484,16156,-1795,47,11,127,-1046,331,146
9.980055,2436,16190,-1838,56,3,136,-1037,323,155
9.990053,2457,16239,-1873,53,0,142,-1040,320,161
10.000059,2452,16235,-1854,52,0,150,-1041,320,169
10.010056,2492,16209,-1847,51,15,145,-1042,335,164
10.020059,2539,16195,-1847,53,24,135,-1040,344,154
10.030053,2669,16176,-1817,56,42,112,-1037,362,131
10.040055,2733,16172,-1816,53,47,99,-1040,367,118
10.050060,2732,16161,-1819,47,44,76,-1046,364,95
10.060055,2728,16168,-1855,44,38,71,-1049,358,90
10.070055,2737,16164,-1868,40,31,68,-1053,351,87
10.080055,2726,16199,-1919,30,18,70,-1063,338,89
10.090055,2741,16195,-1921,26,17,71,-1067,337,90
10.100055,2792,16193,-1878,20,9,71,-1073,329,90
10.110055,2818,16174,-1879,16,-1,72,-1077,319,91
10.120071,2837,16165,-1889,11,-19,66,-1082,301,85
10.130084,2855,16147,-1892,10,-22,59,-1083,298,78
10.140059,2835,16161,-1870,9,-23,53,-1084,297,72
10.150055,2717,16181,-1855,7,-40,46,-1086,280,65
10.160059,2684,16183,-1869,5,-52,49,-1088,268,68
10.170054,2679,16160,-1855,0,-69,48,-1093,251,67
10.180057,2670,16154,-1860,-1,-71,45,-1094,249,64
10.190055,2681,16158,-1863,-4,-67,39,-1097,253,58
10.200056,2693,16151,-1866,-3,-61,35,-1096,259,54
10.210055,2693,16147,-1880,-2,-55,32,-1095,265,51
10.220056,2650,16176,-1886,0,-40,29,-1093,280,48
10.230053,2632,16165,-1884,0,-36,24,-1093,284,43
10.240057,2641,16168,-1881,0,-23,12,-1093,297,31
10.250055,2655,16193,-1869,0,-19,12,-1093,301,31
10.260057,2680,16196,-1856,-3,-18,11,-1096,302,30
10.270055,2696,16186,-1869,-12,-21,7,-1105,299,26
10.280056,2724,16183,-1891,-18,-22,1,-1111,298,20
10.290055,2685,16195,-1875,-20,-15,5,-1113,305,24
10.300055,2657,16241,-1891,-14,-12,19,-1107,308,38
10.310054,2733,16198,-1889,-11,-27,35,-1104,293,54
10.320056,2907,16138,-1897,-10,-35,32,-1103,285,51
10.330055,2934,16122,-1902,-9,-38,26,-1102,282,45
10.340055,2884,16132,-1872,-6,-42,10,-1099,278,29
10.350069,2842,16166,-1872,-6,-48,6,-1099,272,25
10.360058,2807,16179,-1898,-7,-55,2,-1100,265,21
10.370055,2797,16176,-1909,-9,-54,0,-1102,266,19
10.380056,2782,16162,-1921,-11,-47,-2,-1104,273,17
10.390054,2772,16165,-1885,-11,-46,-5,-1104,274,14
10.400058,2786,16162,-1887,-12,-49,-7,-1105,271,12
10.410056,2785,16186,-1894,-13,-50,-13,-1106,270,6
10.420056,2754,16190,-1897,-14,-48,-15,-1107,272,4
10.430054,2701,16202,-1879,-16,-45,-11,-1109,275,8
10.440056,2675,16203,-1869,-15,-43,-6,-1108,277,13
10.450054,2646,16206,-1865,-13,-35,7,-1106,285,26
10.460056,2641,16215,-1865,-11,-33,16,-1104,287,35
10.470055,2644,16204,-1859,-10,-32,23,-1103,288,42
10.480055,2697,16177,-1835,-6,-38,34,-1099,282,53
10.490054,2716,16175,-1828,-5,-41,36,-1098,279,55
10.500056,2726,16185,-1837,-1,-50,40,-1094,270,59
10.510055,2734,16185,-1878,-1,-53,42,-1094,267,61
10.520056,2722,16178,-1884,-1,-54,43,-1094,266,62
10.530055,2722,16178,-1880,0,-53,49,-1093,267,68
10.540056,2734,16174,-1871,-1,-53,50,-1094,267,69
10.550055,2782,16164,-1867,0,-55,51,-1093,265,70
10.560054,2796,16162,-1863,0,-55,50,-1093,265,69
10.570055,2810,16163,-1877,-1,-53,41,-1094,267,60
10.580055,2819,16156,-1894,-2,-50,36,-1095,270,55
10.590054,2821,16173,-1880,-2,-52,27,-1095,268,46
10.600056,2811,16170,-1881,-5,-56,24,-1098,264,43
10.610055,2808,16177,-1887,-6,-58,25,-1099,262,44
10.620055,2823,16175,-1884,-7,-58,27,-1100,262,46
10.630053,2842,16165,-1892,-6,-56,26,-1099,264,45
10.640056,2858,16165,-1892,-4,-43,21,-1097,277,40
10.650055,2863,16157,-1890,-4,-35,17,-1097,285,36
10.660055,2853,16160,-1883,-4,-33,12,-1097,287,31
10.670054,2865,16154,-1885,-6,-33,4,-1099,287,23
10.680055,2869,16150,-1877,-6,-33,-1,-1099,287,18
10.690055,2874,16137,-1871,-6,-34,-16,-1099,286,3
10.700055,2855,16139,-1871,-6,-36,-23,-1099,284,-4
10.710055,2857,16136,-1874,-7,-38,-28,-1100,282,-9
10.720055,2835,16159,-1896,-8,-38,-36,-1101,282,-17
10.730054,2796,16172,-1894,-9,-39,-38,-1102,281,-19
10.740072,2739,16181,-1874,-12,-48,-33,-1105,272,-14
10.750056,2739,16178,-1872,-13,-51,-29,-1106,269,-10
10.760058,2735,16176,-1877,-12,-49,-22,-1105,271,-3
10.770055,2736,16157,-1860,-10,-46,-19,-1103,274,0
10.780055,2742,16146,-1869,-10,-43,-17,-1103,277,2
10.790054,2748,16155,-1875,-6,-36,-12,-1099,284,7
10.800056,2739,16158,-1884,-6,-34,-9,-1099,286,10
10.810054,2703,16165,-1891,-7,-36,1,-1100,284,20
10.820056,2695,16163,-1881,-7,-35,7,-1100,285,26
10.830052,2699,16159,-1867,-5,-38,14,-1098,282,33
10.840055,2731,16153,-1852,-6,-45,15,-1099,275,34
10.850055,2759,16159,-1864,-5,-50,15,-1098,270,34
10.860055,2832,16152,-1894,-7,-50,11,-1100,270,30
10.870054,2834,16150,-1888,-7,-47,9,-1100,273,28
10.880056,2788,16163,-1872,-5,-43,5,-1098,277,24
10.890054,2778,16159,-1864,-5,-43,5,-1098,277,24
10.900055,2770,16171,-1878,-4,-41,4,-1097,279,23
10.910054,2793,16169,-1885,-4,-41,3,-1097,279,22
10.920054,2794,16174,-1883,-5,-40,1,-1098,280,20
10.930054,2793,16189,-1880,-5,-44,0,-1098,276,19
10.940055,2784,16183,-1876,-3,-44,-1,-1096,276,18
10.950055,2763,16187,-1889,-5,-40,3,-1098,280,22
10.960055,2760,16171,-1881,-6,-36,4,-1099,284,23
10.970054,2759,16155,-1865,-4,-32,7,-1097,288,26
10.980054,2758,16147,-1858,-2,-33,8,-1095,287,27
10.990054,2773,16132,-1849,-2,-37,8,-1095,283,27
11.000056,2810,16144,-1864,0,-40,6,-1093,280,25
11.010055,2813,16160,-1876,1,-40,3,-1092,280,22
11.020055,2800,16165,-1902,0,-42,0,-1093,278,19
11.030052,2799,16170,-1893,-1,-42,-1,-1094,278,18
11.040055,2797,16162,-1883,-3,-40,-2,-1096,280,17
11.050055,2798,16163,-1883,-5,-36,-4,-1098,284,15
11.060054,2816,16166,-1889,-5,-34,-5,-1098,286,14
11.070055,2827,16165,-1891,-6,-30,-11,-1099,290,8
11.080056,2837,16163,-1894,-5,-30,-14,-1098,290,5
11.090055,2822,16161,-1885,-5,-28,-19,-1098,292,0
11.100055,2809,16172,-1882,-6,-29,-22,-1099,291,-3
11.110054,2800,16180,-1897,-7,-29,-23,-1100,291,-4
11.120055,2736,16163,-1882,-8,-28,-20,-1101,292,-1
11.130054,2731,16158,-1881,-7,-29,-19,-1100,291,0
11.140054,2755,16174,-1863,-5,-33,-16,-1098,287,3
11.150054,2766,16168,-1867,-5,-38,-16,-1098,282,3
11.160055,2767,16170,-1884,-6,-49,-14,-1099,271,5
11.170054,2768,16169,-1900,-7,-54,-14,-1100,266,5
11.180055,2760,16165,-1882,-8,-57,-13,-1101,263,6
11.190054,2743,16185,-1865,-9,-65,-12,-1102,255,7
11.200055,2733,16183,-1864,-10,-68,-9,-1103,252,10
11.210054,2743,16182,-1879,-10,-62,-10,-1103,258,9
11.220055,2757,16170,-1904,-9,-54,-9,-1102,266,10
11.230052,2771,16144,-1886,-8,-46,-10,-1101,274,9
11.240054,2764,16144,-1880,-7,-37,-17,-1100,283,2
11.250054,2765,16163,-1895,-5,-32,-20,-1098,288,-1
11.260055,2722,16172,-1872,-4,-26,-21,-1097,294,-2
11.270054,2705,16180,-1862,-5,-30,-19,-1098,290,0
11.280055,2707,16192,-1868,-5,-33,-12,-1098,287,7
11.290055,2721,16185,-1850,-3,-31,-12,-1096,289,7
11.300054,2736,16188,-1852,-2,-26,-12,-1095,294,7
11.310055,2728,16202,-1852,0,-25,-7,-1093,295,12
11.320055,2739,16194,-1841,-1,-29,-4,-1094,291,15
11.330054,2772,16177,-1859,-2,-34,0,-1095,286,19
11.340054,2773,16166,-1854,-2,-34,0,-1095,286,19
11.350054,2767,16161,-1865,-3,-34,-2,-1096,286,17
11.360054,2780,16176,-1868,-3,-37,-3,-1096,283,16
11.370054,2777,16182,-1887,-4,-38,-4,-1097,282,15
11.380054,2761,16171,-1869,-3,-41,-3,-1096,279,16
11.390054,2763,16157,-1856,-3,-43,-3,-1096,277,16
11.400053,2749,16163,-1854,-4,-49,-1,-1097,271,18
11.410054,2730,16163,-1854,-3,-49,0,-1096,271,19
11.420054,2710,16181,-1867,-3,-47,2,-1096,273,21
11.430943,2687,16183,-1876,-4,-44,5,-1097,276,24
11.440078,2693,16189,-1869,-4,-42,8,-1097,278,27
11.450056,2736,16176,-1867,-3,-38,15,-1096,282,34
11.460053,2774,16171,-1875,-3,-37,16,-1096,283,35
11.470054,2807,16156,-1869,-2,-32,13,-1095,288,32
11.480054,2814,16151,-1899,-3,-32,9,-1096,288,28
11.490054,2819,16152,-1891,-3,-34,4,-1096,286,23
11.500053,2771,16162,-1882,-6,-40,-2,-1099,280,17
11.510054,2754,16167,-1896,-8,-42,-4,-1101,278,15
11.520055,2746,16174,-1894,-9,-44,-2,-1102,276,17
11.530053,2754,16170,-1890,-9,-43,-2,-1102,277,17
11.540053,2761,16172,-1893,-9,-41,-3,-1102,279,16
11.550053,2760,16177,-1883,-10,-38,-5,-1103,282,14
11.560053,2758,16185,-1871,-9,-35,-7,-1102,285,12
11.570054,2762,16176,-1873,-8,-35,-4,-1101,285,15
11.580054,2771,16180,-1873,-7,-37,-5,-1100,283,14
11.590054,2797,16163,-1862,-5,-40,-7,-1098,280,12
11.600054,2799,16180,-1868,-4,-41,-11,-1097,279,8
11.610068,2801,16178,-1876,-4,-45,-19,-1097,275,0
11.620054,2794,16181,-1882,-5,-44,-23,-1098,276,-4
11.630053,2776,16185,-1886,-4,-42,-27,-1097,278,-8
11.640054,2738,16186,-1875,-3,-40,-27,-1096,280,-8
11.650053,2737,16177,-1874,-3,-39,-25,-1096,281,-6
11.660054,2735,16172,-1879,-2,-38,-25,-1095,282,-6
11.670053,2733,16170,-1891,-3,-39,-24,-1096,281,-5
11.680070,2737,16175,-1893,-5,-41,-22,-1098,279,-3
11.690080,2735,16185,-1868,-6,-43,-21,-1099,277,-2
11.700056,2737,16191,-1876,-7,-44,-21,-1100,276,-2
11.710054,2709,16201,-1875,-8,-45,-16,-1101,275,3
11.720055,2691,16202,-1869,-8,-46,-13,-1101,274,6
11.730054,2677,16193,-1873,-9,-46,-3,-1102,274,16
11.740071,2668,16191,-1883,-9,-45,0,-1102,275,19
11.750052,2689,16185,-1887,-9,-43,5,-1102,277,24
11.760055,2696,16190,-1895,-7,-37,12,-1100,283,31
11.770054,2693,16200,-1887,-5,-34,16,-1098,286,35
11.780054,2681,16209,-1895,-4,-33,22,-1097,287,41
11.790054,2694,16212,-1898,-6,-35,24,-1099,285,43
11.800053,2712,16201,-1891,-9,-37,30,-1102,283,49
11.810054,2754,16174,-1894,-9,-36,31,-1102,284,50
11.820054,2759,16167,-1883,-8,-36,30,-1101,284,49
11.830052,2765,16168,-1899,-7,-32,27,-1100,288,46
11.840054,2766,16167,-1880,-6,-30,26,-1099,290,45
11.850054,2751,16160,-1864,-7,-29,24,-1100,291,43
11.860053,2744,16165,-1863,-8,-33,25,-1101,287,44
11.870053,2748,16175,-1860,-12,-50,25,-1105,270,44
11.880053,2763,16157,-1880,-14,-58,23,-1107,262,42
11.890052,2770,16150,-1864,-13,-67,19,-1106,253,38
11.900054,2773,16146,-1860,-13,-79,15,-1106,241,34
11.910053,2769,16155,-1864,-12,-81,14,-1105,239,33
11.920053,2733,16169,-1878,-7,-72,14,-1100,248,33
11.930053,2715,16173,-1882,-6,-67,18,-1099,253,37
11.940053,2707,16169,-1882,-2,-59,26,-1095,261,45
11.950052,2732,16172,-1870,0,-53,27,-1093,267,46
11.960053,2735,16174,-1889,2,-45,27,-1091,275,46
11.970053,2744,16159,-1900,7,-31,24,-1086,289,43
11.980053,2753,16175,-1908,9,-27,23,-1084,293,42
11.990053,2759,16172,-1892,9,-21,21,-1084,299,40
12.000053,2774,16164,-1863,8,-23,20,-1085,297,39
12.010053,2790,16162,-1874,7,-28,18,-1086,292,37
12.020053,2839,16152,-1893,3,-40,12,-1090,280,31
12.030054,2829,16157,-1913,3,-43,10,-1090,277,29
12.040054,2815,16164,-1929,0,-45,8,-1093,275,27
12.050053,2810,16159,-1924,-2,-41,7,-1095,279,26
12.060066,2814,16159,-1901,-4,-34,6,-1097,286,25
12.070054,2818,16155,-1915,-4,-32,4,-1097,288,23
12.080054,2820,16139,-1929,-5,-25,2,-1098,295,21
12.090054,2824,16145,-1890,-2,-12,-1,-1095,308,18
12.100053,2836,16162,-1896,-2,-11,-3,-1095,309,16
12.110053,2846,16131,-1872,-4,-14,-11,-1097,306,8
12.120056,2842,16153,-1908,-3,-15,-16,-1096,305,3
12.130052,2885,16140,-1883,-7,-28,-28,-1100,292,-9
12.140053,2836,16183,-1894,-11,-30,-31,-1104,290,-12
12.150054,2797,16178,-1882,-12,-34,-30,-1105,286,-11
12.160053,2780,16163,-1872,-13,-41,-29,-1106,279,-10
12.170053,2797,16163,-1901,-13,-41,-31,-1106,279,-12
12.180053,2765,16161,-1887,-15,-31,-30,-1108,289,-11
12.190053,2742,16164,-1852,-12,-27,-28,-1105,293,-9
12.200052,2693,16182,-1835,-12,-31,-28,-1105,289,-9
12.210053,2708,16195,-1877,-17,-56,-17,-1110,264,2
12.220052,2723,16192,-1907,-15,-51,-11,-1108,269,8
12.230056,2674,16201,-1864,-12,-37,-2,-1105,283,17
12.240054,2634,16203,-1838,-11,-42,4,-1104,278,23
12.250054,2618,16220,-1855,-11,-54,23,-1104,266,42
12.260054,2661,16181,-1832,-9,-55,30,-1102,265,49
12.270053,2651,16185,-1833,-6,-57,36,-1099,263,55
12.280054,2641,16180,-1813,0,-70,53,-1093,250,72
12.290053,2669,16185,-1831,0,-76,59,-1093,244,78
12.300053,2744,16187,-1890,4,-71,63,-1089,249,82
12.310053,2779,16166,-1865,5,-68,59,-1088,252,78
12.320053,2808,16163,-1833,6,-74,55,-1087,246,74
12.330053,2833,16136,-1856,7,-82,50,-1086,238,69
12.340052,2909,16110,-1861,8,-86,46,-1085,234,65
12.350053,2962,16085,-1934,13,-74,5,-1080,246,24
12.360053,2744,16326,-2258,11,-57,-11,-1082,263,8
12.370053,2685,16114,-1750,-22,23,57,-1115,343,76
12.380071,2816,15920,-1543,-1,28,52,-1094,348,71
12.390053,2822,16060,-1760,15,-1,0,-1078,319,19
12.400053,2860,16192,-1926,20,22,13,-1073,342,32
12.410053,2883,16175,-1858,20,31,20,-1073,351,39
12.420053,2930,16133,-1838,17,-13,25,-1076,307,44
12.430054,2938,16136,-1879,17,-31,25,-1076,289,44
12.440051,2927,16151,-1897,16,-47,22,-1077,273,41
12.450054,2931,16111,-1860,16,-51,19,-1077,269,38
12.460052,3013,16049,-1782,18,-59,11,-1075,261,30
12.470053,3007,16144,-1952,22,-91,-26,-1071,229,-7
12.480053,2957,16200,-2103,15,-93,-34,-1078,227,-15
12.490053,2932,16191,-2097,-7,-50,-35,-1100,270,-16
12.500053,2904,16168,-1984,-13,-27,-40,-1106,293,-21
12.510053,2839,16180,-1928,-19,-20,-47,-1112,300,-28
12.520053,2871,16175,-1930,-23,-24,-50,-1116,296,-31
12.530052,2878,16171,-1945,-25,-22,-54,-1118,298,-35
12.540053,2794,16181,-1879,-26,-11,-57,-1119,309,-38
12.550053,2776,16183,-1872,-26,-16,-56,-1119,304,-37
12.560052,2748,16174,-1893,-26,-28,-49,-1119,292,-30
12.570053,2574,16377,-2171,-30,-29,-44,-1123,291,-25
12.580052,2537,16298,-2048,-30,2,24,-1123,322,43
12.590052,2617,16096,-1587,-6,-54,32,-1099,266,51
12.600052,2502,16250,-1870,-7,-107,37,-1100,213,56
12.610053,2788,16122,-1946,-10,-60,53,-1103,260,72
12.620053,2696,16132,-1853,1,-18,45,-1092,302,64
12.630054,2633,16145,-1772,7,-46,52,-1086,274,71
12.640052,2688,16187,-1906,7,-66,61,-1086,254,80
12.650054,2752,16189,-1974,11,-25,74,-1082,295,93
12.660053,2694,16145,-1889,15,-9,73,-1078,311,92
12.670052,2662,16165,-1887,17,-9,77,-1076,311,96
12.680053,2765,16136,-1880,25,-5,83,-1068,315,102
12.690052,2796,16111,-1909,32,7,75,-1061,327,94
12.700053,2858,16072,-1897,48,31,26,-1045,351,45
12.710053,2844,16098,-1891,55,40,4,-1038,360,23
12.720053,2851,16110,-1861,63,46,-12,-1030,366,7
12.730053,2886,16138,-1779,75,37,-23,-1018,357,-4
12.740069,2905,16174,-1822,76,9,-18,-1017,329,1
12.750052,3001,16242,-2096,53,-43,7,-1040,277,26
12.760053,3031,16215,-2151,38,-40,17,-1055,280,36
12.770052,2969,16213,-2139,13,-22,27,-1080,298,46
12.780052,2860,16222,-2106,-1,-30,33,-1094,290,52
12.790053,2905,16206,-2094,-16,-40,39,-1109,280,58
12.800053,3127,16169,-2067,-38,-23,35,-1131,297,54
12.810053,3133,16078,-1888,-42,-19,35,-1135,301,54
12.820053,2988,16321,-2349,-64,-49,19,-1157,271,38
12.830055,2992,16146,-2366,-79,-19,20,-1172,301,39
12.840052,2973,15783,-2183,-24,29,-21,-1117,349,-2
12.850053,2851,15851,-2207,14,17,-73,-1079,337,-54
12.860052,2882,16014,-2209,38,25,-90,-1055,345,-71
12.870052,3025,16066,-1981,100,41,-123,-993,361,-104
12.880053,3062,16152,-1888,123,39,-143,-970,359,-124
12.890052,2893,16454,-1603,90,17,-124,-1003,337,-105
12.900052,2834,16362,-1502,51,-13,-94,-1042,307,-75
12.910053,2902,16256,-1585,-3,-86,-90,-1096,234,-71
12.920099,2915,16159,-1942,-17,-72,-110,-1110,248,-91
12.930174,2859,16204,-1999,-28,-32,-128,-1121,288,-109
12.940076,2578,16250,-1993,-47,4,-130,-1140,324,-111
12.950068,2584,16293,-2192,-64,-9,-121,-1157,311,-102
12.960070,2630,16329,-2433,-118,38,-111,-1211,358,-92
12.970067,2540,16460,-2603,-141,97,-83,-1234,417,-64
12.980066,2509,16589,-2595,-165,131,-56,-1258,451,-37
12.990070,2766,16965,-2457,-250,193,-25,-1343,513,-6
13.000109,2672,17114,-2271,-322,217,16,-1415,537,35
13.010101,2794,16148,-1952,-449,154,-27,-1542,474,-8
13.020083,2887,16418,-1889,-473,161,-109,-1566,481,-90
13.030093,2864,16507,-1406,-434,62,-67,-1527,382,-48
13.040052,2709,16382,-1018,-406,-88,-24,-1499,232,-5
13.050051,2812,16386,-1037,-386,-240,11,-1479,80,30
13.060052,3076,16613,-1362,-383,-459,45,-1476,-139,64
13.070053,3077,16716,-1513,-433,-501,65,-1526,-181,84
13.080052,2947,16539,-1797,-597,-530,48,-1690,-210,67
13.090070,2805,16583,-2009,-708,-508,35,-1801,-188,54
13.100058,2691,16582,-2138,-899,-447,-61,-1992,-127,-42
13.110052,2563,16940,-2833,-1030,-383,-54,-2123,-63,-35
13.120052,2635,16884,-3058,-1183,-284,-37,-2276,36,-18
13.130052,3031,16378,-2233,-1336,-140,-222,-2429,180,-203
13.140052,2923,16418,-2086,-1346,-47,-347,-2439,273,-328
13.150051,3064,16898,-1623,-1399,62,-482,-2492,382,-463
13.160053,3026,17094,-1390,-1429,80,-479,-2522,400,-460
13.170053,3009,17317,-1153,-1429,38,-379,-2522,358,-360
13.180052,3034,17237,-493,-1381,-4,-299,-2474,316,-280
13.190069,2976,17165,-193,-1301,-60,-197,-2394,260,-178
13.200055,3649,18205,10,-1698,39,-11,-2791,359,8
13.210052,2890,18104,-20,-2017,81,172,-3110,401,191
13.220052,2342,17686,91,-2594,113,466,-3687,433,485
13.230051,2974,16788,511,-2782,67,440,-3875,387,459
13.240051,2941,16613,527,-2930,110,422,-4023,430,441
13.250052,3045,16369,742,-3162,257,351,-4255,577,370
13.260080,3124,16419,866,-3244,324,300,-4337,644,319
13.270077,2779,16501,702,-3454,441,253,-4547,761,272
13.280056,2644,16159,972,-3553,483,256,-4646,803,275
13.290052,2588,15794,1211,-3676,449,219,-4769,769,238
13.300054,2453,15203,1848,-3695,399,181,-4788,719,200
13.310052,2589,15058,2253,-3680,346,122,-4773,666,141
13.320052,2894,15010,3100,-3570,244,-66,-4663,564,-47
13.330052,2887,14951,3378,-3508,199,-141,-4601,519,-122
13.340052,2905,15131,3748,-3500,115,-238,-4593,435,-219
13.350051,2871,15392,3994,-3548,63,-252,-4641,383,-233
13.360076,2897,15715,4209,-3687,-49,-199,-4780,271,-180
13.370073,2889,15866,4484,-3774,-80,-148,-4867,240,-129
13.380053,2937,15732,4658,-3857,-78,-101,-4950,242,-82
13.390052,2795,15520,5001,-4021,-55,7,-5114,265,26
13.400052,2664,15314,5154,-4089,-47,92,-5182,273,111
13.410052,2571,14976,5461,-4188,-61,301,-5281,259,320
13.420052,2520,14518,5655,-4201,-76,410,-5294,244,429
13.430051,2615,14264,5928,-4125,-84,569,-5218,236,588
13.440051,3046,14130,5879,-4068,-44,556,-5161,276,575
13.450056,3197,14117,5935,-4028,74,517,-5121,394,536
13.460052,2809,13914,6586,-3957,415,543,-5050,735,562
13.470052,2527,13738,7038,-3919,486,595,-5012,806,614
13.480051,2493,13629,7329,-3835,476,654,-4928,796,673
13.490052,2648,13238,7452,-3791,526,656,-4884,846,675
13.500051,2613,13088,7630,-3735,612,628,-4828,932,647
13.510051,2485,13178,8003,-3558,798,614,-4651,1118,633
13.520052,2510,13271,8221,-3479,866,599,-4572,1186,618
13.530051,2387,13153,8493,-3348,989,582,-4441,1309,601
13.540051,2186,12698,8458,-3312,1063,601,-4405,1383,620
13.550051,2320,12717,8698,-3300,1210,647,-4393,1530,666
13.560053,2256,12041,9354,-3304,1246,663,-4397,1566,682
13.570051,2327,12030,9680,-3308,1244,675,-4401,1564,694
13.580053,2251,11861,9773,-3354,1232,741,-4447,1552,760
13.590051,2303,11770,9888,-3402,1253,783,-4495,1573,802
13.600052,2381,11294,10298,-3465,1318,794,-4558,1638,813
13.610052,2329,11070,10488,-3460,1341,765,-4553,1661,784
13.620053,2346,10916,10639,-3419,1385,685,-4512,1705,704
13.630051,2372,10784,11006,-3395,1416,633,-4488,1736,652
13.640051,2313,10665,11277,-3363,1448,585,-4456,1768,604
13.650052,2198,10375,11872,-3272,1454,494,-4365,1774,513
13.660053,2093,10092,12052,-3228,1421,457,-4321,1741,476
13.670051,1749,10073,12389,-3107,1323,428,-4200,1643,447
13.680052,1779,9934,12512,-3050,1261,478,-4143,1581,497
13.690052,1837,9838,12679,-2937,1112,496,-4030,1432,515
13.700054,1912,9457,13025,-2866,1059,483,-3959,1379,502
13.710052,2019,9276,13199,-2780,1015,463,-3873,1335,482
13.720053,1898,9059,13404,-2627,879,420,-3720,1199,439
13.730052,1889,8933,13429,-2567,803,386,-3660,1123,405
13.740069,1897,8810,13465,-2471,696,344,-3564,1016,363
13.750050,1967,8472,13755,-2424,658,328,-3517,978,347
13.760055,1933,8222,13872,-2383,608,311,-3476,928,330
13.770052,1887,7870,14131,-2331,483,290,-3424,803,309
13.780052,1890,7752,14194,-2307,417,298,-3400,737,317
13.790051,1895,7495,14374,-2270,293,331,-3363,613,350
13.800052,1913,7362,14513,-2240,246,343,-3333,566,362
13.810052,1954,7228,14645,-2147,189,347,-3240,509,366
13.820052,2065,6989,14531,-2105,184,334,-3198,504,353
13.830051,2115,6957,14402,-2077,203,325,-3170,523,344
13.840054,2189,6773,14199,-2079,278,319,-3172,598,338
13.850052,2235,6624,14333,-2102,306,336,-3195,626,355
13.860053,2359,6326,14554,-2128,321,406,-3221,641,425
13.870052,2348,6243,14520,-2141,321,443,-3234,641,462
13.880052,2294,6239,14503,-2185,335,517,-3278,655,536
13.890051,2131,6100,14556,-2209,354,560,-3302,674,579
13.900052,2038,5972,14714,-2222,370,595,-3315,690,614
13.910052,1944,5709,14956,-2229,351,674,-3322,671,693
13.920053,1926,5612,14975,-2231,335,699,-3324,655,718
13.930051,1953,5527,14913,-2232,372,709,-3325,692,728
13.940052,2035,5346,14893,-2241,415,693,-3334,735,712
13.950051,1996,5196,15105,-2245,448,673,-3338,768,692
13.960051,1975,4852,15713,-2195,448,646,-3288,768,665
13.970052,1998,4733,15914,-2140,415,621,-3233,735,640
13.980053,2078,4552,16078,-1993,367,528,-3086,687,547
13.990051,2089,4428,16150,-1905,365,468,-2998,685,487
14.000052,2118,4298,16240,-1720,366,365,-2813,686,384
14.010069,2053,4051,16352,-1632,347,322,-2725,667,341
14.020054,1932,4008,16329,-1555,314,295,-2648,634,314
14.030068,1713,3985,16114,-1446,211,301,-2539,531,320
14.040072,1601,3999,15883,-1423,159,324,-2516,479,343
14.050051,1563,3748,15556,-1420,147,382,-2513,467,401
14.060054,1558,3534,15489,-1434,180,391,-2527,500,410
14.070051,1553,3327,15437,-1480,267,392,-2573,587,411
14.080052,1517,3032,15358,-1516,311,390,-2609,631,409
14.090051,1516,2973,15325,-1556,359,392,-2649,679,411
14.100052,1498,2843,15402,-1633,460,407,-2726,780,426
14.110051,1507,2731,15408,-1656,506,391,-2749,826,410
14.120053,1664,2553,15534,-1683,659,345,-2776,979,364
14.130051,1690,2432,15667,-1686,746,335,-2779,1066,354
14.140052,1640,2292,15816,-1677,842,318,-2770,1162,337
14.150050,1504,2032,16409,-1649,841,313,-2742,1161,332
14.160052,2049,-370,21776,-1498,777,285,-2591,1097,304
14.170051,1310,885,18315,-898,-102,28,-1991,218,47
14.180052,1536,996,17663,-737,-148,-34,-1830,172,-15
14.190052,1537,1014,17671,-462,-207,-89,-1555,113,-70
14.200053,1108,1020,17109,-376,-260,-115,-1469,60,-96
14.210050,1289,1027,16989,-316,-300,-129,-1409,20,-110
14.220051,1318,1210,16482,-225,-320,-165,-1318,0,-146
14.230052,1243,1218,16360,-204,-316,-180,-1297,4,-161
14.240052,1421,1319,16458,-181,-325,-195,-1274,-5,-176
14.250050,1464,1340,16384,-176,-335,-198,-1269,-15,-179
14.260051,1449,1379,16222,-156,-298,-219,-1249,22,-200
14.270051,1552,1535,16285,-144,-257,-245,-1237,63,-226
14.280052,1558,1579,16381,-126,-219,-275,-1219,101,-256
14.290052,1420,1592,16127,-91,-128,-305,-1184,192,-286
14.300054,1388,1646,16135,-78,-85,-312,-1171,235,-293
14.310051,1433,1577,16270,-68,-65,-310,-1161,255,-291
14.320053,1412,1615,16221,-62,-57,-311,-1155,263,-292
14.330051,1356,1680,16180,-51,-49,-280,-1144,271,-261
14.340052,1491,2068,16067,-45,-37,-260,-1138,283,-241
14.350050,1508,1815,16148,-41,-9,-257,-1134,311,-238
14.360052,1542,1654,16161,-12,44,-329,-1105,364,-310
14.370050,1422,1768,16086,0,73,-354,-1093,393,-335
14.380052,1221,1794,16293,6,85,-362,-1087,405,-343
14.390067,1293,1779,16308,4,47,-340,-1089,367,-321
14.400053,1340,1734,16235,-1,-21,-315,-1094,299,-296
14.410051,1416,1755,16195,-1,-38,-311,-1094,282,-292
14.420052,1417,1775,16193,-1,-43,-302,-1094,277,-283
14.430051,1271,1765,16203,-8,-71,-261,-1101,249,-242
14.440051,1190,1716,16219,-11,-101,-226,-1104,219,-207
14.450052,1190,1569,16286,10,-174,-213,-1083,146,-194
14.460052,1083,1659,16177,31,-185,-263,-1062,135,-244
14.470051,1131,2107,16083,48,-155,-247,-1045,165,-228
14.480052,1396,1733,16082,24,-136,-303,-1069,184,-284
14.490050,1356,1846,16093,24,-81,-332,-1069,239,-313
14.500051,1239,1892,16201,14,-58,-303,-1079,262,-284
14.510051,1304,1896,16163,5,-76,-267,-1088,244,-248
14.520052,1486,1802,16226,0,-104,-172,-1093,216,-153
14.530051,2156,1464,16272,-2,-127,-165,-1095,193,-146
14.540051,2246,1197,16135,-7,-127,-217,-1100,193,-198
14.550051,1478,1027,16247,-46,-70,-202,-1139,250,-183
14.560051,1314,1119,16288,-79,-134,-151,-1172,186,-132
14.570051,1450,1344,16188,-136,-242,-45,-1229,78,-26
14.580071,1469,1492,16145,-139,-236,-3,-1232,84,16
14.590051,1447,1640,16131,-110,-159,46,-1203,161,65
14.600053,1346,1356,16238,-88,-109,57,-1181,211,76
14.610051,1378,1344,16228,-62,-62,62,-1155,258,81
14.620051,1394,1982,16049,-19,43,88,-1112,363,107
14.630050,1353,2208,16011,-9,106,137,-1102,426,156
14.640051,1433,2155,16100,4,180,251,-1089,500,270
14.650051,1497,2001,16223,13,185,275,-1080,505,294
14.660077,1510,1976,16185,33,202,243,-1060,522,262
14.670079,1608,1962,16171,40,220,212,-1053,540,231
14.680107,1595,1958,16162,45,238,183,-1048,558,202
14.690081,1550,1980,16155,44,239,132,-1049,559,151
14.700075,1559,2027,16162,42,229,108,-1051,549,127
14.710079,1568,1898,16156,43,236,68,-1050,556,87
14.720075,1524,1883,16139,41,245,50,-1052,565,69
14.730078,1465,1852,16156,32,228,24,-1061,548,43
14.740085,1293,1839,16171,25,214,12,-1068,534,31
14.750074,1241,1841,16205,18,201,3,-1075,521,22
14.760080,1187,1771,16232,11,192,-18,-1082,512,1
14.770078,1112,1739,16246,14,203,-28,-1079,523,-9
14.780070,1034,1727,16249,29,225,-38,-1064,545,-19
14.790073,992,1733,16210,40,241,-34,-1053,561,-15
14.800070,988,1732,16222,51,261,-30,-1042,581,-11
14.810074,961,1935,16118,66,290,-20,-1027,610,-1
14.820070,834,1858,16183,60,306,0,-1033,626,19
14.830071,820,1819,16247,54,268,13,-1039,588,32
14.840070,900,1807,16256,49,236,23,-1044,556,42
14.850073,941,1830,16240,38,175,44,-1055,495,63
14.860233,948,1740,16289,33,136,43,-1060,456,62
14.870080,999,1746,16254,27,100,36,-1066,420,55
14.880075,1050,1752,16231,24,74,22,-1069,394,41
14.890078,1019,1751,16243,23,70,21,-1070,390,40
14.900076,965,1816,16188,27,67,27,-1066,387,46
14.910078,967,1842,16168,29,81,40,-1064,401,59
14.920074,989,1826,16178,41,128,86,-1052,448,105
14.930079,958,1841,16162,45,142,112,-1048,462,131
14.940075,954,1854,16165,47,153,133,-1046,473,152
14.950079,916,1950,16094,34,170,166,-1059,490,185
14.960102,933,2068,16144,27,200,178,-1066,520,197
14.970079,760,2288,16220,-21,248,254,-1114,568,273
14.980075,680,2129,16255,-52,246,296,-1145,566,315
14.990077,648,1936,16234,-83,226,300,-1176,546,319
15.000086,548,1833,16215,-86,236,275,-1179,556,294
15.010079,524,1825,16260,-87,248,240,-1180,568,259
15.020074,415,1759,16297,-90,248,172,-1183,568,191
15.030075,343,1767,16300,-94,230,143,-1187,550,162
15.040074,320,1689,16300,-99,173,106,-1192,493,125
15.050099,366,1648,16288,-95,145,94,-1188,465,113
15.060075,426,1659,16272,-85,93,82,-1178,413,101
15.070079,403,1755,16240,-92,69,89,-1185,389,108
15.080074,355,1809,16301,-98,37,116,-1191,357,135
15.090088,268,1755,16323,-114,-87,229,-1207,233,248
15.100075,281,1561,16310,-106,-149,290,-1199,171,309
15.110077,360,1422,16319,-47,-235,359,-1140,85,378
15.120074,329,1437,16256,-12,-246,379,-1105,74,398
15.130103,406,1394,16243,20,-251,398,-1073,69,417
15.140119,509,1260,16261,79,-247,416,-1014,73,435
15.150080,591,1251,16305,112,-240,402,-981,80,421
15.160083,679,1389,16266,168,-226,342,-925,94,361
15.170074,720,1517,16223,186,-219,310,-907,101,329
15.180072,823,1639,16225,195,-209,253,-898,111,272
15.190073,973,1783,16228,185,-200,251,-908,120,270
15.200069,883,1817,16220,145,-205,299,-948,115,318
15.210071,925,1387,16309,40,-287,351,-1053,33,370
15.220069,918,1280,16285,29,-312,341,-1064,8,360
15.230071,1258,1672,16102,50,-299,265,-1043,21,284
15.240069,1273,1737,16194,32,-246,237,-1061,74,256
15.250069,1276,1668,16195,21,-163,215,-1072,157,234
15.260069,1350,1618,16266,9,-160,218,-1084,160,237
15.270080,1468,1580,16214,0,-149,227,-1093,171,246
15.280075,1528,2488,15976,16,-83,242,-1077,237,261
15.290075,1424,2217,16147,23,-26,279,-1070,294,298
15.300095,1169,2107,16282,6,-41,382,-1087,279,401
15.310081,1299,1964,16248,-13,-106,382,-1106,214,401
15.320075,1509,1856,16197,-28,-140,379,-1121,180,398
15.330079,1538,1730,16265,-39,-142,357,-1132,178,376
15.340075,1494,1720,16264,-43,-163,328,-1136,157,347
15.350075,1416,1751,16167,-50,-180,258,-1143,140,277
15.360075,1353,1775,16164,-49,-163,204,-1142,157,223
15.370080,1289,1776,16190,-48,-128,112,-1141,192,131
15.380075,1142,1776,16188,-51,-124,80,-1144,196,99
15.390078,1130,1748,16203,-55,-130,54,-1148,190,73
15.400073,1033,1777,16236,-60,-147,-3,-1153,173,16
15.410077,1037,1851,16226,-62,-157,-18,-1155,163,1
15.420074,1038,1933,16229,-87,-167,-34,-1180,153,-15
15.430086,1056,1865,16225,-104,-172,-39,-1197,148,-20
15.440084,1053,1749,16211,-120,-191,-47,-1213,129,-28
15.450079,1061,1575,16287,-115,-206,-56,-1208,114,-37
15.460075,1033,1553,16252,-108,-226,-61,-1201,94,-42
15.470078,993,1528,16217,-84,-255,-64,-1177,65,-45
15.480075,978,1538,16246,-68,-259,-61,-1161,61,-42
15.490078,1035,1647,16242,-44,-277,-51,-1137,43,-32
15.500074,1062,1709,16208,-38,-277,-47,-1131,43,-28
15.510078,1100,1730,16190,-31,-251,-42,-1124,69,-23
15.520074,1068,1825,16230,-33,-251,-37,-1126,69,-18
15.530078,1064,1820,16235,-42,-268,-25,-1135,52,-6
15.540075,1120,1767,16196,-58,-309,5,-1151,11,24
15.550077,1122,1725,16204,-62,-323,18,-1155,-3,37
15.560076,1155,1746,16211,-61,-318,25,-1154,2,44
15.570078,1114,1682,16191,-57,-304,20,-1150,16,39
15.580074,1067,1691,16168,-53,-294,11,-1146,26,30
15.590074,1141,1695,16221,-45,-295,-5,-1138,25,14
15.600074,1208,1710,16231,-48,-299,-7,-1141,21,12
15.610077,1276,1745,16185,-58,-311,4,-1151,9,23
15.620076,1347,1687,16201,-60,-311,10,-1153,9,29
15.630076,1383,1677,16196,-52,-284,26,-1145,36,45
15.640074,1399,1637,16185,-48,-272,47,-1141,48,66
15.650078,1442,1609,16185,-39,-260,69,-1132,60,88
15.660077,1604,1558,16208,-13,-199,106,-1106,121,125
15.670078,1655,1555,16235,-4,-183,115,-1097,137,134
15.680078,1796,1576,16136,3,-161,120,-1090,159,139
15.690078,1802,1596,16155,6,-141,120,-1087,179,139
15.700077,1758,1624,16178,-3,-158,156,-1096,162,175
15.710077,1780,1603,16190,-17,-201,183,-1110,119,202
15.720078,1897,1587,16170,-25,-230,203,-1118,90,222
15.730077,1993,1585,16167,-34,-227,220,-1127,93,239
15.740083,2048,1602,16148,-38,-208,220,-1131,112,239
15.750075,1973,1699,16126,-48,-152,217,-1141,168,236
15.760074,1883,1716,16120,-55,-126,219,-1148,194,238
15.770079,1870,1704,16210,-76,-94,240,-1169,226,259
15.780077,1982,1779,16087,-79,-48,243,-1172,272,262
15.790077,2029,1841,16089,-85,13,234,-1178,333,253
15.800077,1914,1748,16167,-114,125,198,-1207,445,217
15.810079,1862,1659,16194,-127,154,180,-1220,474,199
15.820078,1833,1669,16156,-155,207,131,-1248,527,150
15.830075,1970,1880,16118,-170,262,98,-1263,582,117
15.840074,2030,1404,16407,-180,333,69,-1273,653,88
15.850076,1567,1366,16319,-160,374,25,-1253,694,44
15.860077,1639,1440,16297,-158,348,3,-1251,668,22
15.870107,1984,1653,16156,-147,361,-30,-1240,681,-11
15.880077,2014,1718,16088,-123,409,-45,-1216,729,-26
15.890077,1923,1770,16049,-61,511,-98,-1154,831,-79
15.900077,1803,1770,16104,-34,555,-139,-1127,875,-120
15.910077,2069,1698,16212,-15,591,-199,-1108,911,-180
15.920077,1933,1159,16452,-15,705,-484,-1108,1025,-465
15.930077,1968,1234,16404,-60,751,-600,-1153,1071,-581
15.940077,1117,2432,16771,-151,792,-628,-1244,1112,-609
15.950078,1273,2787,17081,-263,692,-449,-1356,1012,-430
15.960077,1494,2973,17022,-568,525,-92,-1661,845,-73
15.970077,1560,2506,16718,-677,565,21,-1770,885,40
15.980077,1288,2332,16653,-764,614,100,-1857,934,119
15.990076,1024,2000,16566,-919,618,229,-2012,938,248
16.000074,1054,1803,16485,-985,618,257,-2078,938,276
16.010077,1128,1559,16416,-1093,701,208,-2186,1021,227
16.020077,1098,1497,16433,-1143,766,149,-2236,1086,168
16.030074,1051,1474,16449,-1243,866,74,-2336,1186,93
16.040074,961,1543,16529,-1302,893,75,-2395,1213,94
16.050077,948,1527,16557,-1370,910,95,-2463,1230,114
16.060077,911,1287,16536,-1522,952,123,-2615,1272,142
16.070077,803,1098,16495,-1589,978,126,-2682,1298,145
16.080077,665,876,16420,-1701,1000,140,-2794,1320,159
16.090077,300,468,16304,-1747,993,151,-2840,1313,170
16.100077,253,270,16266,-1780,993,157,-2873,1313,176
16.110076,96,-19,16233,-1816,1031,147,-2909,1351,166
16.120077,61,-205,16177,-1820,1072,139,-2913,1392,158
16.130077,-101,-561,16151,-1803,1174,125,-2896,1494,144
16.140077,-222,-699,16097,-1789,1208,138,-2882,1528,157
16.150077,-292,-827,16104,-1780,1237,199,-2873,1557,218
16.160077,-500,-1049,16071,-1795,1226,246,-2888,1546,265
16.170077,-568,-1275,15994,-1800,1211,261,-2893,1531,280
16.180078,-744,-1710,15820,-1786,1263,228,-2879,1583,247
16.190077,-889,-1886,15744,-1770,1323,193,-2863,1643,212
16.200077,-1080,-2125,15746,-1717,1500,99,-2810,1820,118
16.210084,-1184,-2149,15771,-1685,1597,37,-2778,1917,56
16.220125,-1301,-2098,15800,-1618,1795,-53,-2711,2115,-34
16.230113,-1557,-1941,15906,-1604,1879,-94,-2697,2199,-75
16.240197,-1626,-1924,15912,-1611,1950,-133,-2704,2270,-114
16.250096,-1835,-2107,15908,-1648,2065,-181,-2741,2385,-162
16.260082,-2047,-2221,15871,-1665,2087,-190,-2758,2407,-171
16.270079,-2447,-2522,15750,-1700,2050,-165,-2793,2370,-146
16.280108,-2607,-2679,15666,-1708,2010,-131,-2801,2330,-112
16.290096,-2753,-2852,15575,-1709,1962,-99,-2802,2282,-80
16.300091,-2890,-3280,15449,-1684,1882,-53,-2777,2202,-34
16.310088,-2973,-3566,15385,-1658,1859,-54,-2751,2179,-35
16.320100,-3133,-4080,15228,-1587,1823,-110,-2680,2143,-91
16.330092,-3160,-4272,15149,-1541,1803,-163,-2634,2123,-144
16.340091,-3173,-4439,15088,-1438,1740,-305,-2531,2060,-286
16.350090,-3217,-4552,15086,-1389,1684,-395,-2482,2004,-376
16.360088,-3243,-4475,15105,-1345,1610,-483,-2438,1930,-464
16.370134,-3347,-4353,15023,-1270,1468,-623,-2363,1788,-604
16.380153,-3504,-4320,14963,-1235,1412,-647,-2328,1732,-628
16.390090,-3873,-4185,14845,-1154,1316,-665,-2247,1636,-646
16.400071,-4100,-4094,14821,-1112,1264,-658,-2205,1584,-639
16.410048,-4251,-3826,14785,-1043,1197,-591,-2136,1517,-572
16.420052,-4594,-3170,14761,-1016,1157,-508,-2109,1477,-489
16.430067,-4705,-2879,14644,-1000,1119,-386,-2093,1439,-367
16.440079,-4967,-2589,14504,-981,1081,-60,-2074,1401,-41
16.450050,-5101,-2828,14491,-964,1043,108,-2057,1363,127
16.460049,-5195,-3252,14467,-890,945,354,-1983,1265,373
16.470049,-5244,-4086,14407,-870,894,428,-1963,1214,447
16.480049,-5282,-4537,14396,-868,842,484,-1961,1162,503
16.490049,-5227,-5309,14402,-873,713,493,-1966,1033,512
16.500049,-5201,-5503,14417,-869,656,466,-1962,976,485
16.510072,-5431,-6163,14468,-847,571,340,-1940,891,359
16.520050,-5518,-7093,14688,-850,538,222,-1943,858,241
16.530049,-5406,-7585,14896,-910,471,28,-2003,791,47
16.540049,-5244,-6941,14981,-958,429,-18,-2051,749,1
16.550049,-5123,-6529,14910,-1009,403,-23,-2102,723,-4
16.560049,-4943,-6071,14853,-1109,428,12,-2202,748,31
16.570048,-4945,-5951,14871,-1160,439,47,-2253,759,66
16.580080,-5079,-5815,14577,-1260,434,108,-2353,754,127
16.590069,-5206,-5910,14370,-1294,481,140,-2387,801,159
16.600049,-5489,-6039,14199,-1320,571,203,-2413,891,222
16.610049,-6063,-6496,13944,-1309,562,228,-2402,882,247
16.620049,-6222,-6738,13823,-1283,514,241,-2376,834,260
16.630049,-6360,-7057,13677,-1184,342,235,-2277,662,254
16.640048,-6344,-7107,13667,-1124,242,220,-2217,562,239
16.650049,-6136,-6946,13757,-1011,53,163,-2104,373,182
16.660049,-5929,-6814,13801,-967,-19,131,-2060,301,150
16.670049,-5750,-6687,13844,-915,-90,82,-2008,230,101
16.680048,-5654,-6608,13933,-903,-131,74,-1996,189,93
16.690049,-5691,-6639,13946,-898,-195,78,-1991,125,97
16.700048,-5750,-6791,13859,-895,-382,120,-1988,-62,139
16.710048,-5745,-6906,13791,-889,-473,161,-1982,-153,180
16.720049,-5688,-6990,13712,-863,-573,259,-1956,-253,278
16.730049,-5636,-7052,13689,-845,-592,307,-1938,-272,326
16.740056,-5642,-7126,13678,-828,-612,339,-1921,-292,358
16.750048,-5664,-7372,13528,-773,-608,375,-1866,-288,394
16.760049,-5693,-7553,13448,-727,-587,385,-1820,-267,404
16.770049,-5709,-7748,13393,-611,-555,393,-1704,-235,412
16.780049,-5623,-7780,13386,-545,-549,387,-1638,-229,406
16.790048,-5543,-7804,13412,-411,-536,338,-1504,-216,357
16.800048,-5220,-7763,13498,-346,-510,305,-1439,-190,324
16.810049,-5108,-7693,13559,-284,-477,277,-1377,-157,296
16.820049,-4853,-7565,13623,-182,-402,252,-1275,-82,271
16.830048,-4658,-7519,13604,-133,-334,226,-1226,-14,245
16.840048,-4547,-7378,13653,-32,-107,155,-1125,213,174
16.850048,-4667,-7471,13774,-4,-12,157,-1097,308,176
16.860048,-4842,-7658,13892,-4,11,235,-1097,331,254
16.870048,-4935,-7981,14010,-21,-22,291,-1114,298,310
16.880049,-4876,-8020,14034,-48,-51,339,-1141,269,358
16.890048,-4746,-8126,14146,-132,-92,406,-1225,228,425
16.900048,-4717,-8198,14193,-174,-118,422,-1267,202,441
16.910048,-4607,-8196,14231,-240,-149,370,-1333,171,389
16.920048,-4421,-7686,14217,-281,-129,317,-1374,191,336
16.930048,-4434,-7302,14197,-329,-94,263,-1422,226,282
16.940048,-4583,-6334,14092,-430,-24,188,-1523,296,207
16.950048,-4669,-5988,14063,-489,16,185,-1582,336,204
16.960048,-4934,-5689,13909,-596,101,219,-1689,421,238
16.970048,-5006,-5556,13864,-627,147,241,-1720,467,260
16.980048,-5113,-5369,13782,-724,255,321,-1817,575,340
16.990048,-5492,-5496,13675,-777,300,372,-1870,620,391
17.000048,-5594,-5690,13673,-811,342,408,-1904,662,427
17.010050,-5719,-5912,13537,-830,487,423,-1923,807,442
17.020048,-5829,-5988,13433,-849,586,421,-1942,906,440
17.030048,-6093,-6504,13276,-939,790,428,-2032,1110,447
17.040047,-6164,-6801,13247,-963,861,412,-2056,1181,431
17.050048,-6199,-6960,13205,-997,940,378,-2090,1260,397
17.060065,-6270,-7091,13158,-1009,961,366,-2102,1281,385
17.070049,-6305,-7181,13113,-1016,973,346,-2109,1293,365
17.080049,-6281,-7454,12843,-1060,999,266,-2153,1319,285
17.090048,-6345,-7642,12779,-1107,1019,222,-2200,1339,241
17.100048,-6376,-7860,12615,-1145,1014,105,-2238,1334,124
17.110049,-6356,-7967,12633,-1136,1000,46,-2229,1320,65
17.120048,-6313,-8095,12551,-1085,945,-67,-2178,1265,-48
17.130048,-6309,-8438,12461,-1057,900,-109,-2150,1220,-90
17.140048,-6323,-8598,12420,-1028,830,-143,-2121,1150,-124
17.150047,-6353,-8793,12310,-965,652,-186,-2058,972,-167
17.160048,-6411,-8713,12053,-957,575,-190,-2050,895,-171
17.170048,-6534,-8679,11745,-1102,517,-148,-2195,837,-129
17.180048,-6724,-8953,11327,-1215,507,-114,-2308,827,-95
17.190048,-6846,-9045,11193,-1327,495,-69,-2420,815,-50
17.200048,-7065,-9275,11144,-1476,429,61,-2569,749,80
17.210048,-7051,-9495,11214,-1482,377,116,-2575,697,135
17.220048,-6878,-9883,11564,-1348,286,129,-2441,606,148
17.230048,-6930,-9946,11614,-1232,262,90,-2325,582,109
17.240047,-7067,-9978,11588,-938,238,-2,-2031,558,17
17.250048,-7302,-9727,11411,-782,236,-30,-1875,556,-11
17.260048,-7393,-9558,11357,-626,235,-36,-1719,555,-17
17.270048,-7414,-9311,11313,-299,238,-8,-1392,558,11
17.280048,-7384,-9240,11331,-132,241,14,-1225,561,33
17.290048,-7261,-9270,11463,178,243,45,-915,563,64
17.300048,-7155,-9342,11587,306,233,44,-787,553,63
17.310048,-7151,-9635,11665,415,198,11,-678,518,30
17.320048,-7076,-10281,11753,455,174,-42,-638,494,-23
17.330048,-7130,-10241,11741,488,138,-95,-605,458,-76
17.340048,-7123,-9686,11729,477,29,-133,-616,349,-114
17.350048,-7099,-9451,11725,426,-41,-108,-667,279,-89
17.360047,-7031,-9229,11635,317,-157,-43,-776,163,-24
17.370048,-7045,-9158,11593,292,-194,-17,-801,126,2
17.380047,-7074,-9108,11517,322,-264,26,-771,56,45
17.390048,-7165,-9074,11408,370,-303,49,-723,17,68
17.400048,-7178,-9157,11376,435,-340,55,-658,-20,74
17.410048,-7002,-9213,11418,603,-373,29,-490,-53,48
17.420047,-6987,-9162,11512,686,-378,15,-407,-58,34
17.430047,-7020,-9139,11647,852,-428,-32,-241,-108,-13
17.440046,-6950,-9560,11845,979,-458,-93,-114,-138,-74
17.450047,-6832,-9529,12027,1084,-467,-135,-9,-147,-116
17.460047,-6891,-9135,12299,1166,-512,-176,73,-192,-157
17.470048,-6837,-8943,12421,1159,-571,-161,66,-251,-142
17.480047,-6590,-8662,12479,1109,-702,-94,16,-382,-75
17.490048,-6485,-8570,12498,1086,-742,-61,-7,-422,-42
17.500048,-6442,-8453,12555,1037,-819,16,-56,-499,35
17.510049,-6314,-8229,12642,1012,-866,55,-81,-546,74
17.520048,-6208,-8085,12717,986,-904,90,-107,-584,109
17.530047,-6076,-7787,12908,917,-967,145,-176,-647,164
17.540047,-5981,-7669,12980,872,-990,165,-221,-670,184
17.550048,-5920,-7506,13071,779,-1023,197,-314,-703,216
17.560048,-5869,-7484,13111,734,-1038,215,-359,-718,234
17.570048,-5738,-7435,13148,662,-1039,238,-431,-719,257
17.580048,-5535,-7281,13255,634,-1015,233,-459,-695,252
17.590048,-5466,-7233,13270,612,-976,218,-481,-656,237
17.600047,-5520,-7325,13252,568,-859,176,-525,-539,195
17.610047,-5503,-7349,13271,547,-794,151,-546,-474,170
17.620047,-5485,-7384,13260,515,-652,111,-578,-332,130
17.630047,-5492,-7364,13254,522,-564,80,-571,-244,99
17.640047,-5496,-7360,13254,542,-356,20,-551,-36,39
17.650047,-5537,-7313,13282,550,-242,-10,-543,78,9
17.660048,-5564,-7290,13313,555,-133,-37,-538,187,-18
17.670047,-5499,-7205,13390,563,54,-79,-530,374,-60
17.680048,-5501,-7214,13384,566,140,-96,-527,460,-77
17.690047,-5514,-7240,13378,575,276,-113,-518,596,-94
17.700047,-5598,-7223,13404,575,312,-113,-518,632,-94
17.710047,-5603,-7189,13439,567,327,-109,-526,647,-90
17.720047,-5567,-7051,13536,531,316,-100,-562,636,-81
17.730047,-5548,-6986,13578,500,302,-99,-593,622,-80
17.740053,-5536,-6936,13666,431,261,-90,-662,581,-71
17.750047,-5552,-6973,13710,395,232,-85,-698,552,-66
17.760048,-5589,-6961,13712,319,169,-85,-774,489,-66
17.770046,-5744,-6925,13596,285,144,-85,-808,464,-66
17.780047,-5826,-6912,13562,257,119,-84,-836,439,-65
17.790047,-5953,-6886,13552,215,71,-82,-878,391,-63
17.800047,-6004,-6853,13556,194,52,-78,-899,372,-59
17.810047,-6123,-6736,13566,162,37,-64,-931,357,-45
17.820048,-6127,-6752,13599,151,33,-50,-942,353,-31
17.830047,-6115,-6779,13587,134,36,-31,-959,356,-12
17.840046,-6119,-6824,13528,127,44,-22,-966,364,-3
17.850046,-6122,-6874,13539,124,48,-14,-969,368,5
17.860047,-6076,-6938,13546,119,31,-4,-974,351,15
17.870047,-6037,-6962,13507,116,22,0,-977,342,19
17.880047,-5999,-7059,13455,127,11,-6,-966,331,13
17.890047,-5978,-7060,13461,139,2,-15,-954,322,4
17.900047,-5974,-7036,13471,154,-25,-23,-939,295,-4
17.910047,-6033,-7049,13480,158,-51,-21,-935,269,-2
17.920048,-6052,-7087,13462,165,-88,-16,-928,232,3
17.930047,-5962,-7036,13433,201,-146,-19,-892,174,0
17.940047,-5942,-7008,13458,221,-157,-21,-872,163,-2
17.950047,-5948,-7012,13478,252,-168,-22,-841,152,-3
17.960047,-5996,-7003,13564,264,-178,-25,-829,142,-6
17.970047,-6015,-6985,13567,271,-183,-25,-822,137,-6
17.980047,-6053,-6975,13548,284,-176,-31,-809,144,-12
17.990056,-6076,-6940,13560,298,-175,-34,-795,145,-15
18.000048,-6031,-6834,13640,311,-178,-35,-782,142,-16
18.010046,-6006,-6739,13654,312,-180,-34,-781,140,-15
18.020047,-6019,-6663,13694,301,-184,-23,-792,136,-4
18.030048,-6021,-6591,13759,289,-204,-10,-804,116,9
18.040047,-6008,-6602,13760,275,-230,1,-818,90,20
18.050046,-5972,-6567,13799,251,-296,26,-842,24,45
18.060077,-5895,-6550,13806,237,-341,46,-856,-21,65
18.070065,-5770,-6523,13827,220,-391,74,-873,-71,93
18.080052,-5755,-6532,13818,216,-405,86,-877,-85,105
18.090047,-5773,-6546,13816,208,-433,105,-885,-113,124
18.100047,-5751,-6565,13828,211,-443,112,-882,-123,131
18.110047,-5738,-6588,13844,216,-450,117,-877,-130,136
18.120047,-5722,-6630,13795,230,-460,114,-863,-140,133
18.130046,-5651,-6642,13786,248,-446,101,-845,-126,120
18.140047,-5582,-6529,13896,269,-410,64,-824,-90,83
18.150047,-5510,-6507,13921,266,-397,48,-827,-77,67
18.160047,-5476,-6518,13916,270,-357,14,-823,-37,33
18.170047,-5427,-6516,13943,278,-337,-1,-815,-17,18
18.180047,-5433,-6467,13952,286,-325,-10,-807,-5,9
18.190047,-5430,-6381,13963,303,-309,-22,-790,11,-3
18.200046,-5393,-6346,13981,309,-296,-26,-784,24,-7
18.210047,-5388,-6334,14012,305,-269,-33,-788,51,-14
18.220047,-5353,-6228,14078,300,-270,-33,-793,50,-14
18.230047,-5294,-6176,14110,291,-270,-32,-802,50,-13
18.240046,-5250,-6098,14162,266,-260,-31,-827,60,-12
18.250046,-5241,-6078,14186,252,-256,-28,-841,64,-9
18.260047,-5267,-6079,14183,218,-260,-15,-875,60,4
18.270046,-5289,-6094,14166,205,-263,-9,-888,57,10
18.280046,-5304,-6103,14158,200,-271,-8,-893,49,11
18.290046,-5305,-6068,14154,198,-269,-13,-895,51,6
18.300047,-5291,-6065,14148,201,-264,-25,-892,56,-6
18.310045,-5284,-6114,14133,220,-250,-48,-873,70,-29
18.320047,-5315,-6172,14122,239,-253,-59,-854,67,-40
18.330047,-5267,-6209,14222,344,-287,-99,-749,33,-80
18.340047,-5072,-6083,14268,377,-307,-115,-716,13,-96
18.350046,-5106,-6011,14249,310,-308,-104,-783,12,-85
18.360047,-5147,-6051,14276,281,-316,-101,-812,4,-82
18.370047,-5174,-6094,14217,269,-324,-92,-824,-4,-73
18.380047,-5143,-6275,14124,298,-305,-111,-795,15,-92
18.390046,-5112,-6273,14141,330,-278,-132,-763,42,-113
18.400048,-5099,-6209,14194,378,-241,-157,-715,79,-138
18.410046,-5118,-6112,14272,392,-241,-154,-701,79,-135
18.420048,-5091,-6023,14331,403,-253,-140,-690,67,-121
18.430046,-5032,-5977,14404,370,-300,-80,-723,20,-61
18.440046,-4998,-5919,14435,358,-324,-48,-735,-4,-29
18.450046,-4910,-5871,14460,341,-365,0,-752,-45,19
18.460047,-4856,-5811,14485,337,-375,8,-756,-55,27
18.470047,-4829,-5728,14519,326,-376,5,-767,-56,24
18.480047,-4748,-5560,14599,315,-370,-3,-778,-50,16
18.490046,-4739,-5525,14601,302,-359,-16,-791,-39,3
18.500049,-4763,-5506,14602,273,-344,-42,-820,-24,-23
18.510046,-4762,-5499,14623,260,-340,-51,-833,-20,-32
18.520047,-4699,-5524,14624,233,-340,-60,-860,-20,-41
18.530046,-4733,-5578,14602,224,-343,-71,-869,-23,-52
18.540046,-4747,-5636,14571,222,-339,-117,-871,-19,-98
18.550046,-4609,-5706,14520,231,-309,-155,-862,11,-136
18.560047,-4551,-5727,14524,242,-271,-199,-851,49,-180
18.570045,-4466,-5756,14516,274,-163,-274,-819,157,-255
18.580047,-4451,-5756,14506,289,-116,-297,-804,204,-278
18.590045,-4382,-5666,14533,317,-62,-293,-776,258,-274
18.600045,-4324,-5572,14562,327,-66,-257,-766,254,-238
18.610046,-4278,-5469,14625,328,-127,-145,-765,193,-126
18.620046,-4308,-5387,14767,321,-173,-89,-772,147,-70
18.630047,-4355,-5308,14784,319,-211,-29,-774,109,-10
18.640046,-4462,-5427,14877,307,-218,-16,-786,102,3
18.650046,-4436,-5225,14972,289,-210,0,-804,110,19
18.660046,-4441,-5112,15044,228,-261,86,-865,59,105
18.670045,-4332,-5126,14947,199,-278,117,-894,42,136
18.680046,-4375,-5147,14935,175,-284,138,-918,36,157
18.690046,-4393,-5187,14922,134,-340,169,-959,-20,188
18.700046,-4362,-5181,14903,117,-360,178,-976,-40,197
18.710046,-4282,-5111,14907,79,-379,175,-1014,-59,194
18.720046,-4263,-5072,14912,62,-369,159,-1031,-49,178
18.730046,-4290,-5063,14912,28,-340,109,-1065,-20,128
18.740059,-4315,-5089,14871,12,-320,88,-1081,0,107
18.750046,-4340,-5119,14857,0,-302,70,-1093,18,89
18.760047,-4376,-5218,14812,-15,-268,49,-1108,52,68
18.770046,-4387,-5228,14793,-17,-247,43,-1110,73,62
18.780046,-4343,-5238,14781,-13,-190,38,-1106,130,57
18.790045,-4290,-5245,14780,-10,-158,37,-1103,162,56
18.800046,-4252,-5243,14788,-4,-91,37,-1097,229,56
18.810045,-4263,-5283,14820,-1,-69,42,-1094,251,61
18.820046,-4275,-5300,14835,0,-58,51,-1093,262,70
18.830046,-4211,-5313,14886,-4,-80,71,-1097,240,90
18.840046,-4168,-5346,14877,-4,-89,74,-1097,231,93
18.850045,-4226,-5424,14852,3,-111,69,-1090,209,88
18.860047,-4225,-5474,14840,12,-127,63,-1081,193,82
18.870045,-4226,-5515,14836,41,-164,51,-1052,156,70
18.880047,-4164,-5490,14830,57,-177,44,-1036,143,63
18.890046,-4136,-5484,14839,73,-187,35,-1020,133,54
18.900046,-4083,-5408,14901,99,-209,23,-994,111,42
18.910046,-4067,-5374,14914,109,-213,16,-984,107,35
18.920046,-4098,-5343,14908,123,-207,-1,-970,113,18
18.930046,-4093,-5373,14847,134,-194,-12,-959,126,7
18.940047,-4151,-5384,14844,145,-178,-23,-948,142,-4
18.950046,-4088,-5342,14845,173,-171,-37,-920,149,-18
18.960047,-4066,-5271,14883,185,-148,-47,-908,172,-28
18.970047,-4091,-5134,14955,192,-129,-63,-901,191,-44
18.980046,-4067,-5129,14953,188,-130,-63,-905,190,-44
18.990046,-4074,-5121,14947,181,-123,-58,-912,197,-39
19.000046,-4103,-5127,14948,179,-123,-51,-914,197,-32
19.010056,-4095,-5137,14939,179,-124,-44,-914,196,-25
19.020047,-4001,-5119,14947,182,-114,-32,-911,206,-13
19.030058,-3979,-5110,14953,185,-101,-28,-908,219,-9
19.040060,-3961,-5071,15000,184,-88,-22,-909,232,-3
19.050046,-3942,-5050,15026,182,-89,-17,-911,231,2
19.060046,-3917,-5022,15058,170,-105,-1,-923,215,18
19.070047,-3869,-4933,15095,159,-114,6,-934,206,25
19.080047,-3876,-4914,15100,148,-121,14,-945,199,33
19.090046,-3926,-4890,15098,125,-131,27,-968,189,46
19.100047,-3938,-4872,15085,114,-133,35,-979,187,54
19.110046,-3961,-4857,15113,92,-135,42,-1001,185,61
19.120046,-3940,-4833,15111,82,-135,40,-1011,185,59
19.130047,-3909,-4831,15100,61,-112,31,-1032,208,50
19.140046,-3945,-4841,15088,51,-98,26,-1042,222,45
19.150046,-3954,-4866,15090,43,-91,22,-1050,229,41
19.160046,-3969,-4907,15076,31,-87,16,-1062,233,35
19.170046,-3969,-4917,15062,27,-85,13,-1066,235,32
19.180047,-3981,-4921,15054,23,-75,12,-1070,245,31
19.190046,-3992,-4899,15046,21,-66,14,-1072,254,33
19.200046,-3987,-4907,15056,19,-58,18,-1074,262,37
19.210046,-3965,-4954,15055,17,-51,33,-1076,269,52
19.220045,-3974,-4986,15045,19,-51,36,-1074,269,55
19.230046,-4019,-5020,15027,25,-64,39,-1068,256,58
19.240064,-4021,-5057,15006,29,-72,39,-1064,248,58
19.250046,-4009,-5100,14993,48,-90,34,-1045,230,53
19.260045,-3946,-5110,15025,61,-97,24,-1032,223,43
19.270046,-3936,-5085,15036,73,-102,11,-1020,218,30
19.280046,-3976,-5016,15057,90,-113,-7,-1003,207,12
19.290046,-4000,-4993,15055,97,-123,-10,-996,197,9
19.300046,-3999,-4950,15057,106,-139,-8,-987,181,11
19.310046,-3990,-4940,15061,111,-141,-8,-982,179,11
19.320046,-3966,-4933,15073,119,-143,-6,-974,177,13
19.330046,-3962,-4909,15074,120,-156,0,-973,164,19
19.340046,-3944,-4872,15060,122,-163,3,-971,157,22
19.350046,-3975,-4856,15094,125,-169,5,-968,151,24
19.360046,-3929,-4818,15114,127,-174,6,-966,146,25
19.370046,-3890,-4794,15114,129,-170,4,-964,150,23
19.380046,-3842,-4764,15123,130,-163,4,-963,157,23
19.390058,-3812,-4739,15147,122,-151,9,-971,169,28
19.400065,-3820,-4729,15160,117,-151,15,-976,169,34
19.410061,-3813,-4726,15174,112,-154,19,-981,166,38
19.420046,-3825,-4754,15190,98,-175,28,-995,145,47
19.430046,-3813,-4768,15177,91,-197,36,-1002,123,55
19.440045,-3800,-4774,15162,85,-232,51,-1008,88,70
19.450046,-3737,-4817,15140,87,-237,52,-1006,83,71
19.460046,-3742,-4838,15152,91,-241,47,-1002,79,66
19.470046,-3733,-4852,15120,104,-241,30,-989,79,49
19.480046,-3708,-4829,15131,114,-231,15,-979,89,34
19.490046,-3632,-4760,15157,129,-211,-7,-964,109,12
19.500046,-3630,-4739,15181,135,-198,-14,-958,122,5
19.510045,-3659,-4715,15206,137,-198,-8,-956,122,11
19.520046,-3646,-4682,15218,136,-204,0,-957,116,19
19.530060,-3630,-4681,15225,135,-209,9,-958,111,28
19.540046,-3588,-4689,15205,135,-216,19,-958,104,38
19.550046,-3556,-4705,15193,138,-212,15,-955,108,34
19.560045,-3563,-4651,15231,143,-196,-7,-950,124,12
19.570047,-3526,-4607,15241,145,-190,-19,-948,130,0
19.580753,-3524,-4489,15299,141,-164,-40,-952,156,-21
19.590114,-3540,-4435,15319,131,-159,-43,-962,161,-24
19.600744,-3523,-4398,15332,102,-157,-36,-991,163,-17
19.610069,-3485,-4353,15376,83,-156,-28,-1010,164,-9
19.620069,-3458,-4325,15387,62,-162,-16,-1031,158,3
19.630077,-3438,-4351,15378,18,-170,4,-1075,150,23
19.640065,-3463,-4397,15374,-1,-167,15,-1094,153,34
19.650078,-3485,-4441,15355,-32,-170,34,-1125,150,53
19.660069,-3448,-4499,15309,-41,-165,39,-1134,155,58
19.670067,-3436,-4536,15289,-47,-152,41,-1140,168,60
19.680120,-3463,-4620,15256,-49,-122,43,-1142,198,62
19.690074,-3466,-4649,15248,-45,-108,43,-1138,212,62
19.700071,-3452,-4654,15234,-30,-76,37,-1123,244,56
19.710067,-3407,-4625,15278,-22,-54,27,-1115,266,46
19.720045,-3399,-4587,15295,-16,-37,18,-1109,283,37
19.730043,-3409,-4530,15310,-15,-12,2,-1108,308,21
19.740052,-3438,-4506,15319,-19,-7,-1,-1112,313,18
19.750047,-3458,-4477,15347,-34,-16,3,-1127,304,22
19.760046,-3436,-4478,15347,-44,-23,8,-1137,297,27
19.770046,-3417,-4467,15353,-62,-29,17,-1155,291,36
19.780046,-3421,-4484,15349,-71,-28,21,-1164,292,40
19.790045,-3432,-4497,15344,-79,-28,26,-1172,292,45
19.800045,-3442,-4506,15332,-97,-29,36,-1190,291,55
19.810045,-3467,-4535,15318,-105,-29,42,-1198,291,61
19.820045,-3491,-4609,15283,-112,-32,50,-1205,288,69
19.830046,-3489,-4643,15261,-113,-33,52,-1206,287,71
19.840045,-3488,-4677,15245,-106,-32,49,-1199,288,68
19.850046,-3478,-4763,15219,-99,-33,44,-1192,287,63
19.860046,-3460,-4776,15228,-89,-31,38,-1182,289,57
19.870046,-3452,-4791,15220,-71,-22,28,-1164,298,47
19.880046,-3462,-4817,15219,-61,-20,23,-1154,300,42
19.890045,-3477,-4862,15204,-38,-30,15,-1131,290,34
19.900045,-3514,-4946,15169,-23,-41,8,-1116,279,27
19.910045,-3515,-4973,15160,-4,-52,-3,-1097,268,16
19.920046,-3475,-4937,15169,33,-64,-39,-1060,256,-20
19.930045,-3472,-4870,15193,51,-64,-57,-1042,256,-38
19.940045,-3518,-4748,15219,72,-64,-79,-1021,256,-60
19.950045,-3541,-4726,15217,79,-69,-84,-1014,251,-65
19.960046,-3543,-4719,15220,93,-71,-93,-1000,249,-74
19.970046,-3571,-4724,15224,99,-71,-97,-994,249,-78
19.980046,-3573,-4728,15217,106,-74,-96,-987,246,-77
19.990045,-3519,-4749,15199,125,-69,-88,-968,251,-69
20.000060,-3487,-4724,15200,136,-58,-83,-957,262,-64
20.010046,-3505,-4665,15244,154,-41,-72,-939,279,-53
20.020045,-3499,-4646,15256,159,-42,-63,-934,278,-44
20.030045,-3496,-4602,15269,163,-51,-45,-930,269,-26
20.040044,-3458,-4543,15300,162,-58,-40,-931,262,-21
20.050050,-3424,-4524,15319,159,-62,-38,-934,258,-19
20.060045,-3373,-4489,15370,149,-70,-41,-944,250,-22
20.070045,-3360,-4480,15375,145,-77,-44,-948,243,-25
20.080046,-3353,-4499,15348,135,-81,-55,-958,239,-36
20.090045,-3378,-4515,15344,133,-85,-57,-960,235,-38
20.100045,-3395,-4519,15331,131,-101,-46,-962,219,-27
20.110045,-3369,-4498,15346,130,-108,-36,-963,212,-17
20.120071,-3323,-4479,15357,129,-110,-28,-964,210,-9
20.130065,-3280,-4428,15368,126,-92,-21,-967,228,-2
20.140047,-3301,-4403,15381,121,-81,-21,-972,239,-2
20.150046,-3330,-4385,15376,110,-69,-18,-983,251,1
20.160045,-3355,-4364,15392,103,-66,-13,-990,254,6
20.170044,-3358,-4354,15388,98,-61,-9,-995,259,10
20.180046,-3364,-4310,15378,85,-47,-5,-1008,273,14
20.190044,-3395,-4275,15395,75,-39,-1,-1018,281,18
20.200045,-3457,-4265,15382,49,-37,19,-1044,283,38
20.210045,-3458,-4291,15381,37,-43,31,-1056,277,50
20.220045,-3466,-4344,15366,22,-60,43,-1071,260,62
20.230045,-3430,-4441,15316,22,-64,37,-1071,256,56
20.240044,-3433,-4487,15291,25,-63,22,-1068,257,41
20.250046,-3456,-4544,15267,44,-48,-17,-1049,272,2
20.260045,-3480,-4539,15276,55,-38,-34,-1038,282,-15
20.270045,-3481,-4434,15332,78,-18,-58,-1015,302,-39
20.280045,-3480,-4376,15359,84,-7,-62,-1009,313,-43
20.290045,-3483,-4324,15380,89,5,-58,-1004,325,-39
20.300016,-3459,-4297,15389,87,8,-57,-1006,328,-38
20.310046,-3445,-4282,15405,84,11,-57,-1009,331,-38
20.320045,-3430,-4219,15430,68,8,-52,-1025,328,-33
20.330044,-3444,-4224,15427,57,0,-42,-1036,320,-23
20.340044,-3471,-4293,15390,39,-27,-15,-1054,293,4
20.350045,-3444,-4304,15383,34,-42,-5,-1059,278,14
20.360046,-3416,-4312,15375,28,-47,1,-1065,273,20
20.370045,-3411,-4333,15385,27,-43,0,-1066,277,19
20.380045,-3396,-4332,15387,27,-41,-3,-1066,279,16
20.390044,-3350,-4285,15403,25,-35,-16,-1068,285,3
20.400045,-3346,-4264,15420,22,-31,-23,-1071,289,-4
20.410045,-3347,-4252,15419,12,-29,-26,-1081,291,-7
20.420045,-3339,-4207,15451,4,-36,-21,-1089,284,-2
20.430046,-3294,-4197,15445,-4,-42,-18,-1097,278,1
20.440048,-3347,-4259,15411,-21,-39,-8,-1114,281,11
20.450049,-3410,-4316,15375,-27,-48,0,-1120,272,19
20.460047,-3408,-4434,15334,-28,-85,30,-1121,235,49
20.470045,-3342,-4485,15311,-22,-93,33,-1115,227,52
20.480045,-3309,-4504,15296,-1,-65,0,-1094,255,19
20.490045,-3342,-4450,15317,8,-45,-18,-1085,275,1
20.500045,-3381,-4421,15331,18,-31,-32,-1075,289,-13
20.510045,-3379,-4327,15395,31,-15,-45,-1062,305,-26
20.520045,-3351,-4248,15425,33,-4,-52,-1060,316,-33
20.530045,-3335,-4162,15466,20,11,-57,-1073,331,-38
20.540045,-3340,-4181,15458,9,10,-55,-1084,330,-36
20.550044,-3354,-4203,15448,-12,-6,-40,-1105,314,-21
20.560045,-3396,-4264,15431,-20,-19,-27,-1113,301,-8
20.570045,-3388,-4273,15425,-26,-32,-13,-1119,288,6
20.580044,-3341,-4287,15416,-34,-45,5,-1127,275,24
20.590044,-3328,-4318,15397,-35,-44,7,-1128,276,26
20.600044,-3348,-4359,15370,-35,-35,0,-1128,285,19
20.610044,-3361,-4381,15374,-33,-31,-5,-1126,289,14
20.620045,-3350,-4399,15372,-24,-23,-19,-1117,297,0
20.630047,-3351,-4426,15347,-19,-16,-27,-1112,304,-8
20.640044,-3344,-4424,15360,-13,-9,-34,-1106,311,-15
20.650044,-3307,-4372,15383,-1,9,-46,-1094,329,-27
20.660044,-3322,-4335,15404,0,18,-49,-1093,338,-30
20.670045,-3335,-4316,15411,-3,20,-35,-1096,340,-16
20.680044,-3339,-4283,15415,-8,13,-22,-1101,333,-3
20.690045,-3334,-4275,15425,-15,5,-10,-1108,325,9
20.700045,-3334,-4265,15422,-32,-8,6,-1125,312,25
20.710045,-3357,-4293,15420,-39,-15,11,-1132,305,30
20.720044,-3407,-4352,15382,-46,-28,18,-1139,292,37
20.730043,-3411,-4361,15382,-48,-33,16,-1141,287,35
20.740058,-3401,-4367,15377,-48,-33,10,-1141,287,29
20.750045,-3416,-4358,15375,-49,-32,8,-1142,288,27
20.760044,-3437,-4367,15384,-48,-29,6,-1141,291,25
20.770045,-3453,-4408,15354,-43,-23,3,-1136,297,22
20.780044,-3452,-4423,15331,-37,-14,0,-1130,306,19
20.790044,-3442,-4423,15323,-22,8,-8,-1115,328,11
20.800044,-3436,-4420,15320,-16,18,-12,-1109,338,7
20.810045,-3441,-4417,15326,-7,28,-17,-1100,348,2
20.820045,-3447,-4402,15344,-4,24,-16,-1097,344,3
20.830045,-3452,-4380,15347,-2,19,-16,-1095,339,3
20.840044,-3423,-4333,15373,-5,6,-21,-1098,326,-2
20.850044,-3411,-4322,15384,-9,1,-24,-1102,321,-5
20.860044,-3403,-4326,15392,-17,-7,-27,-1110,313,-8
20.870045,-3392,-4340,15384,-20,-10,-28,-1113,310,-9
20.880044,-3408,-4352,15383,-26,-11,-27,-1119,309,-8
20.890044,-3410,-4358,15358,-27,-10,-27,-1120,310,-8
20.900045,-3423,-4365,15351,-29,-7,-27,-1122,313,-8
20.910044,-3466,-4371,15360,-30,2,-23,-1123,322,-4
20.920044,-3469,-4372,15356,-30,5,-19,-1123,325,0
20.930044,-3456,-4353,15352,-32,14,-11,-1125,334,8
20.940044,-3429,-4325,15366,-35,20,-9,-1128,340,10
20.950044,-3440,-4303,15374,-41,28,-9,-1134,348,10
20.960045,-3454,-4272,15415,-56,39,-9,-1149,359,10
20.970045,-3455,-4254,15410,-66,41,-8,-1159,361,11
20.980044,-3476,-4278,15404,-91,42,-6,-1184,362,13
20.990045,-3477,-4295,15392,-101,41,-3,-1194,361,16
21.000046,-3483,-4314,15387,-121,38,5,-1214,358,24
21.010045,-3483,-4339,15380,-131,34,11,-1224,354,30
21.020045,-3467,-4328,15380,-141,34,16,-1234,354,35
21.030044,-3462,-4332,15377,-163,35,24,-1256,355,43
21.040043,-3470,-4351,15362,-174,35,28,-1267,355,47
21.050045,-3484,-4406,15340,-193,31,36,-1286,351,55
21.060044,-3486,-4448,15346,-200,29,38,-1293,349,57
21.070044,-3501,-4496,15332,-209,20,44,-1302,340,63
21.080044,-3532,-4614,15259,-208,17,44,-1301,337,63
21.090044,-3539,-4690,15239,-203,16,41,-1296,336,60
21.100044,-3546,-4769,15206,-180,20,30,-1273,340,49
21.110044,-3547,-4775,15203,-165,26,24,-1258,346,43
21.120045,-3550,-4731,15220,-139,46,11,-1232,366,30
21.130044,-3551,-4715,15226,-129,57,5,-1222,377,24
21.140044,-3582,-4712,15216,-111,71,1,-1204,391,20
21.150043,-3652,-4725,15202,-104,71,5,-1197,391,24
21.160045,-3672,-4719,15220,-98,64,12,-1191,384,31
21.170043,-3669,-4703,15225,-88,37,33,-1181,357,52
21.180044,-3667,-4708,15221,-84,23,41,-1177,343,60
21.190044,-3675,-4725,15209,-74,5,40,-1167,325,59
21.200045,-3671,-4760,15194,-66,2,34,-1159,322,53
21.210044,-3673,-4761,15198,-56,2,26,-1149,322,45
21.220044,-3692,-4805,15166,-35,7,6,-1128,327,25
21.230043,-3706,-4842,15157,-23,10,-2,-1116,330,17
21.240043,-3731,-4848,15196,5,1,-12,-1088,321,7
21.250045,-3694,-4815,15180,18,-11,-13,-1075,309,6
21.260044,-3653,-4808,15168,42,-22,-21,-1051,298,-2
21.270044,-3649,-4766,15222,54,-27,-30,-1039,293,-11
21.280044,-3639,-4734,15210,61,-30,-39,-1032,290,-20
21.290043,-3648,-4706,15194,73,-27,-52,-1020,293,-33
21.300044,-3643,-4675,15210,77,-28,-54,-1016,292,-35
21.310044,-3600,-4640,15260,79,-34,-50,-1014,286,-31
21.320044,-3589,-4605,15283,77,-36,-44,-1016,284,-25
21.330043,-3592,-4569,15282,63,-53,-27,-1030,267,-8
21.340045,-3579,-4604,15256,58,-57,-21,-1035,263,-2
21.350044,-3588,-4601,15274,54,-58,-18,-1039,262,1
21.360044,-3573,-4548,15249,42,-61,-14,-1051,259,5
21.370043,-3579,-4564,15269,39,-55,-13,-1054,265,6
21.380123,-3566,-4533,15281,27,-47,-11,-1066,273,8
21.390071,-3539,-4542,15269,20,-42,-12,-1073,278,7
21.400073,-3541,-4539,15269,10,-27,-20,-1083,293,-1
21.410072,-3555,-4522,15285,5,-24,-23,-1088,296,-4
21.420072,-3564,-4536,15283,-2,-22,-23,-1095,298,-4
21.430070,-3619,-4505,15259,-18,-29,-12,-1111,291,7
21.440072,-3635,-4503,15244,-27,-34,-1,-1120,286,18
21.450075,-3655,-4536,15248,-41,-40,17,-1134,280,36
21.460072,-3648,-4549,15247,-46,-39,21,-1139,281,40
21.470071,-3642,-4573,15244,-51,-25,16,-1144,295,35
21.480249,-3632,-4609,15238,-50,-14,7,-1143,306,26
21.490067,-3635,-4607,15246,-49,-6,-2,-1142,314,17
21.500066,-3656,-4613,15238,-50,0,-16,-1143,320,3
21.510066,-3678,-4634,15240,-51,-1,-17,-1144,319,2
21.520067,-3682,-4644,15241,-53,-14,-8,-1146,306,11
21.530065,-3670,-4675,15229,-53,-24,-3,-1146,296,16
21.540067,-3660,-4693,15204,-52,-33,0,-1145,287,19
21.550066,-3653,-4726,15196,-41,-39,0,-1134,281,19
21.560098,-3666,-4712,15213,-34,-40,-4,-1127,280,15
21.570068,-3683,-4663,15208,-27,-38,-9,-1120,282,10
21.580067,-3680,-4665,15199,-24,-32,-9,-1117,288,10
21.590073,-3714,-4655,15202,-20,-25,-5,-1113,295,14
21.600073,-3708,-4666,15194,-18,-22,-4,-1111,298,15
21.610072,-3687,-4679,15200,-17,-19,-3,-1110,301,16
21.620072,-3629,-4683,15211,-9,-9,-9,-1102,311,10
21.630073,-3603,-4667,15215,-6,-2,-12,-1099,318,7
21.640073,-3610,-4637,15230,-5,2,-13,-1098,322,6
21.650076,-3634,-4636,15235,-6,0,-8,-1099,320,11
21.660074,-3623,-4640,15238,-13,-11,3,-1106,309,22
21.670070,-3606,-4669,15247,-15,-16,7,-1108,304,26
21.680072,-3588,-4688,15237,-17,-19,7,-1110,301,26
21.690065,-3580,-4716,15221,-17,-24,2,-1110,296,21
21.700064,-3576,-4715,15229,-16,-29,0,-1109,291,19
21.710066,-3589,-4687,15215,-13,-44,3,-1106,276,22
21.720068,-3584,-4723,15213,-12,-48,8,-1105,272,27
21.730066,-3589,-4739,15204,-7,-51,16,-1100,269,35
21.740066,-3598,-4725,15186,-3,-48,16,-1096,272,35
21.750062,-3599,-4707,15162,1,-37,12,-1092,283,31
21.760059,-3627,-4677,15191,11,-9,2,-1082,311,21
21.770063,-3653,-4651,15218,13,0,-1,-1080,320,18
21.780066,-3660,-4621,15245,8,6,-1,-1085,326,18
21.790068,-3604,-4524,15267,0,4,3,-1093,324,22
21.800072,-3588,-4526,15285,-12,1,8,-1105,321,27
21.810069,-3633,-4524,15331,-39,-28,23,-1132,292,42
21.820072,-3636,-4522,15292,-54,-52,32,-1147,268,51
21.830069,-3641,-4596,15252,-77,-80,43,-1170,240,62
21.840069,-3649,-4619,15236,-84,-87,44,-1177,233,63
21.850068,-3652,-4652,15223,-87,-79,35,-1180,241,54
21.860071,-3676,-4721,15156,-83,-64,28,-1176,256,47
21.870069,-3701,-4781,15143,-74,-49,19,-1167,271,38
21.880072,-3734,-4837,15138,-53,-29,6,-1146,291,25
21.890069,-3721,-4801,15125,-43,-26,4,-1136,294,23
21.900071,-3688,-4774,15134,-28,-10,8,-1121,310,27
21.910067,-3675,-4761,15173,-20,-1,8,-1113,319,27
21.920071,-3657,-4744,15199,-11,1,6,-1104,321,25
21.930068,-3631,-4726,15194,-8,2,1,-1101,322,20
21.940072,-3651,-4719,15201,-6,4,-5,-1099,324,14
21.950068,-3710,-4692,15212,-9,-4,-12,-1102,316,7
21.960070,-3711,-4662,15223,-12,-14,-9,-1105,306,10
21.970068,-3703,-4665,15217,-22,-24,9,-1115,296,28
21.980072,-3691,-4690,15217,-25,-26,16,-1118,294,35
21.990067,-3679,-4717,15207,-26,-30,20,-1119,290,39
22.000072,-3704,-4758,15163,-23,-31,18,-1116,289,37
22.010067,-3709,-4771,15172,-20,-33,14,-1113,287,33
22.020071,-3684,-4729,15200,-10,-41,7,-1103,279,26
22.030068,-3674,-4700,15202,-8,-43,7,-1101,277,26
22.040068,-3676,-4692,15191,-7,-44,17,-1100,276,36
22.050072,-3725,-4739,15175,-5,-46,23,-1098,274,42
22.060080,-3731,-4756,15164,-1,-45,24,-1094,275,43
22.070073,-3701,-4763,15140,10,-31,14,-1083,289,33
22.080071,-3693,-4758,15149,20,-19,1,-1073,301,20
22.090108,-3672,-4753,15175,35,1,-21,-1058,321,-2
22.100070,-3666,-4748,15175,41,7,-29,-1052,327,-10
22.110070,-3666,-4728,15192,50,12,-37,-1043,332,-18
22.120070,-3694,-4714,15202,51,7,-36,-1042,327,-17
22.130070,-3697,-4703,15222,51,-1,-31,-1042,319,-12
22.140070,-3664,-4660,15215,45,-23,-19,-1048,297,0
22.150067,-3639,-4646,15226,41,-28,-14,-1052,292,5
22.160070,-3636,-4597,15260,30,-36,-9,-1063,284,10
22.170068,-3644,-4590,15245,22,-40,-6,-1071,280,13
22.180070,-3662,-4621,15235,10,-38,1,-1083,282,20
22.190070,-3733,-4636,15208,6,-39,7,-1087,281,26
22.200071,-3728,-4644,15204,5,-41,13,-1088,279,32
22.210070,-3683,-4632,15213,2,-33,16,-1091,287,35
22.220071,-3671,-4615,15213,0,-26,14,-1093,294,33
22.230070,-3664,-4613,15222,-5,-15,7,-1098,305,26
22.240068,-3676,-4615,15218,-9,-13,3,-1102,307,22
22.250067,-3692,-4636,15209,-15,-20,0,-1108,300,19
22.260071,-3667,-4680,15228,-16,-26,-2,-1109,294,17
22.270069,-3659,-4672,15238,-17,-34,-5,-1110,286,14
22.280067,-3638,-4674,15237,-18,-46,-13,-1111,274,6
22.290070,-3644,-4665,15236,-20,-52,-15,-1113,268,4
22.300070,-3655,-4673,15218,-23,-64,-14,-1116,256,5
22.310070,-3703,-4685,15215,-24,-69,-9,-1117,251,10
22.320071,-3705,-4698,15200,-24,-70,-3,-1117,250,16
22.330070,-3697,-4695,15184,-21,-64,6,-1114,256,25
22.340070,-3702,-4708,15176,-19,-56,8,-1112,264,27
22.350070,-3722,-4734,15169,-12,-47,5,-1105,273,24
22.360070,-3734,-4732,15163,-8,-44,1,-1101,276,20
22.370070,-3738,-4719,15167,0,-32,-7,-1093,288,12
22.380070,-3718,-4667,15200,1,-23,-12,-1092,297,7
22.390069,-3699,-4654,15210,2,-14,-16,-1091,306,3
22.400070,-3680,-4640,15215,0,-4,-16,-1093,316,3
22.410070,-3683,-4647,15225,-4,-5,-14,-1097,315,5
22.420087,-3694,-4668,15225,-11,-22,-6,-1104,298,13
22.430071,-3692,-4656,15216,-15,-32,-3,-1108,288,16
22.440068,-3687,-4660,15200,-19,-44,2,-1112,276,21
22.450067,-3717,-4703,15195,-22,-45,4,-1115,275,23
22.460070,-3721,-4699,15182,-21,-46,6,-1114,274,25
22.470067,-3696,-4719,15160,-14,-39,4,-1107,281,23
22.480070,-3700,-4740,15182,-10,-36,2,-1103,284,21
22.490071,-3674,-4720,15199,0,-38,-1,-1093,282,18
22.500064,-3650,-4695,15177,3,-37,-4,-1090,283,15
22.510064,-3647,-4707,15173,6,-31,-8,-1087,289,11
22.520064,-3664,-4680,15240,10,-29,-22,-1083,291,-3
22.530198,-3655,-4660,15244,7,-33,-26,-1086,287,-7
22.540066,-3641,-4629,15216,0,-34,-26,-1093,286,-7
22.550065,-3643,-4639,15231,-3,-37,-21,-1096,283,-2
22.560062,-3649,-4642,15246,-14,-58,-7,-1107,262,12
22.570065,-3631,-4633,15225,-19,-67,0,-1112,253,19
22.580065,-3641,-4640,15193,-22,-69,7,-1115,251,26
22.590065,-3710,-4704,15190,-22,-67,19,-1115,253,38
22.600066,-3721,-4701,15190,-19,-65,21,-1112,255,40
22.610070,-3691,-4653,15190,-16,-51,14,-1109,269,33
22.620070,-3700,-4673,15205,-14,-39,8,-1107,281,27
22.630073,-3695,-4671,15222,-13,-25,-2,-1106,295,17
22.640068,-3678,-4681,15189,-11,-19,-7,-1104,301,12
22.650068,-3687,-4682,15181,-9,-13,-10,-1102,307,9
22.660071,-3664,-4690,15213,-7,-13,-14,-1100,307,5
22.670071,-3659,-4689,15228,-7,-18,-15,-1100,302,4
22.680070,-3646,-4701,15212,-11,-35,-4,-1104,285,15
22.690070,-3640,-4727,15205,-12,-42,1,-1105,278,20
22.700071,-3647,-4729,15197,-9,-56,6,-1102,264,25
22.710070,-3656,-4719,15211,-7,-60,6,-1100,260,25
22.720071,-3657,-4724,15195,-4,-62,6,-1097,258,25
22.730071,-3676,-4741,15180,2,-52,0,-1091,268,19
22.740067,-3685,-4727,15175,8,-48,-5,-1085,272,14
22.750069,-3651,-4672,15193,14,-38,-17,-1079,282,2
22.760068,-3614,-4643,15217,16,-29,-23,-1077,291,-4
22.770071,-3606,-4621,15243,9,-21,-27,-1084,299,-8
22.780071,-3607,-4578,15260,3,-25,-23,-1090,295,-4
22.790070,-3631,-4580,15250,-7,-36,-15,-1100,284,4
22.800072,-3674,-4617,15234,-27,-64,8,-1120,256,27
22.810068,-3683,-4634,15228,-35,-77,20,-1128,243,39
22.820071,-3696,-4648,15209,-41,-77,32,-1134,243,51
22.830070,-3721,-4679,15176,-41,-67,31,-1134,253,50
22.840068,-3726,-4712,15179,-39,-56,23,-1132,264,42
22.850068,-3683,-4707,15167,-34,-44,8,-1127,276,27
22.860070,-3645,-4690,15182,-32,-39,0,-1125,281,19
22.870071,-3646,-4670,15217,-33,-30,-8,-1126,290,11
22.880086,-3646,-4661,15228,-35,-33,-6,-1128,287,13
22.892913,-3632,-4630,15229,-49,-49,5,-1142,271,24
22.900074,-3611,-4624,15235,-56,-55,11,-1149,265,30
22.910117,-3591,-4615,15247,-64,-61,19,-1157,259,38
22.920079,-3610,-4604,15254,-84,-68,30,-1177,252,49
22.930079,-3589,-4619,15256,-94,-71,29,-1187,249,48
22.940072,-3614,-4638,15247,-113,-67,13,-1206,253,32
22.950071,-3584,-4594,15268,-124,-64,-1,-1217,256,18
22.960068,-3522,-4568,15274,-151,-36,-38,-1244,284,-19
22.970081,-3513,-4465,15319,-170,-23,-55,-1263,297,-36
22.980072,-3512,-4427,15337,-194,-15,-66,-1287,305,-47
22.990079,-3511,-4363,15353,-255,0,-72,-1348,320,-53
23.000059,-3528,-4328,15361,-292,0,-71,-1385,320,-52
23.010064,-3497,-4268,15390,-383,3,-64,-1476,323,-45
23.020064,-3467,-4183,15443,-438,12,-57,-1531,332,-38
23.030138,-3484,-4185,15439,-495,14,-56,-1588,334,-37
23.040098,-3525,-4308,15346,-609,6,-50,-1702,326,-31
23.050077,-3515,-4353,15355,-664,11,-62,-1757,331,-43
23.060061,-3629,-4341,15366,-791,-7,-107,-1884,313,-88
23.070043,-3606,-4378,15339,-856,-25,-119,-1949,295,-100
23.080040,-3521,-4402,15262,-988,-11,-141,-2081,309,-122
23.090068,-3385,-4748,15310,-1062,-2,-159,-2155,318,-140
23.100062,-3282,-4976,15400,-1156,-17,-178,-2249,303,-159
23.110042,-3204,-5097,15396,-1380,-73,-245,-2473,247,-226
23.120042,-3253,-4961,15381,-1486,-70,-284,-2579,250,-265
23.130062,-3499,-4385,15262,-1649,-38,-290,-2742,282,-271
23.140044,-3543,-4398,15132,-1722,-45,-252,-2815,275,-233
23.150043,-3599,-4614,14987,-1785,-48,-214,-2878,272,-195
23.160043,-3691,-5252,14788,-1884,-83,-161,-2977,237,-142
23.170043,-3670,-5569,14670,-1922,-111,-158,-3015,209,-139
23.180043,-3692,-6107,14474,-1968,-139,-205,-3061,181,-186
23.190042,-3733,-6319,14382,-1981,-157,-239,-3074,163,-220
23.200057,-3701,-6453,14305,-1992,-158,-320,-3085,162,-301
23.210063,-3593,-6638,14181,-2003,-132,-359,-3096,188,-340
23.220045,-3596,-6715,14172,-2017,-108,-399,-3110,212,-380
23.230042,-3685,-7020,14006,-2051,-75,-453,-3144,245,-434
23.240042,-3627,-7232,13881,-2063,-69,-465,-3156,251,-446
23.250042,-3450,-7626,13742,-2071,-46,-463,-3164,274,-444
23.260043,-3419,-7729,13612,-2070,-26,-477,-3163,294,-458
23.270043,-3467,-7899,13552,-2079,11,-506,-3172,331,-487
23.280042,-3495,-8501,13390,-2071,-5,-523,-3164,315,-504
23.290043,-3486,-8791,13289,-2059,-40,-555,-3152,280,-536
23.300042,-3403,-9062,13180,-1996,-128,-626,-3089,192,-607
23.310042,-3321,-9077,13131,-1960,-168,-657,-3053,152,-638
23.320043,-3341,-9080,13090,-1892,-205,-690,-2985,115,-671
23.330043,-3429,-9087,13137,-1868,-240,-685,-2961,80,-666
23.340043,-3529,-9077,13122,-1826,-353,-625,-2919,-33,-606
23.350042,-3575,-9123,13042,-1805,-395,-587,-2898,-75,-568
23.360042,-3481,-9162,12978,-1784,-436,-539,-2877,-116,-520
23.370043,-3183,-9294,12816,-1751,-432,-471,-2844,-112,-452
23.380042,-3082,-9415,12741,-1740,-402,-461,-2833,-82,-442
